	worker_id	worker_platform	worker_browser	battery_name	battery_owner	battery_owner_email	battery_completed	experiment_include_bonus	experiment_include_catch	experiment_exp_id	experiment_name	experiment_reference	experiment_cognitive_atlas_task_id	result_SS_delay	result_SS_duration	result_SS_stimulus	result_SS_trial_type	result_block_duration	result_condition	result_correct	result_correct_response	result_current_trial	result_dateTime	result_exp_id	result_exp_stage	result_feedback_duration	result_global_shape	result_internal_node_id	result_key_press	result_large_amt	result_later_del	result_local_shape	result_mouse_click	result_num_response	result_page_num	result_possible_responses	result_qnum	result_response_range	result_rt	result_score_response	result_small_amt	result_stim_duration	result_stim_id	result_stim_question	result_stim_response	result_stimulus	result_switch	result_time_elapsed	result_times_viewed	result_timing_post_trial	result_trial	result_trial_id	result_trial_index	result_trial_num	result_trial_type	result_id	result_view_history
7ce0474b-9095-4507-a01b-767445a1c93d_0	7ce0474b-9095-4507-a01b-767445a1c93d	Mac OS X,10.10.5	Chrome,48.0.2564	Internal Test Battery	ian	ianeisenberg90@gmail.com	True	False	False	theories_of_willpower	Theories of Willpower Scale	http://pss.sagepub.com/content/early/2010/09/28/0956797610384745.full#sec-22	trm_56a91a3082c31									0	1454524977430	theories_of_willpower				0.0-0.0	13										1855									1858			instructions	welcome	0		text	44	
7ce0474b-9095-4507-a01b-767445a1c93d_1	7ce0474b-9095-4507-a01b-767445a1c93d	Mac OS X,10.10.5	Chrome,48.0.2564	Internal Test Battery	ian	ianeisenberg90@gmail.com	True	False	False	theories_of_willpower	Theories of Willpower Scale	http://pss.sagepub.com/content/early/2010/09/28/0956797610384745.full#sec-22	trm_56a91a3082c31									1	1454525145484	theories_of_willpower				0.0-1.0	-1										167047									169917			instructions	instruction	1		poldrack-instructions	44	"[{""page_index"":0,""viewing_time"":167046}]"
7ce0474b-9095-4507-a01b-767445a1c93d_2	7ce0474b-9095-4507-a01b-767445a1c93d	Mac OS X,10.10.5	Chrome,48.0.2564	Internal Test Battery	ian	ianeisenberg90@gmail.com	True	False	False	theories_of_willpower	Theories of Willpower Scale	http://pss.sagepub.com/content/early/2010/09/28/0956797610384745.full#sec-22	trm_56a91a3082c31					25701				2	1454525256515	theories_of_willpower	practice			0.0-2.0	37					1	1	[37]	1	[1, 6]	100293	6		25701		Strenuous mental activity exhausts your resources, which you need to refuel afterwards (e.g. through taking breaks, doing nothing, watching television, eating snacks).	Strongly agree	<div class = centerbox-CCT3><p class = block-text><div id = instruct1><strong>Practice 1: </strong> In the version of the card game you are about to play, you will not turn the cards over one by one.  Rather, you will simply choose the total number of cards you would like to turn over (from 0 to 32) and then continue to the next round.  If turning over any cards seems too risky to you can click the zero button, in which case your score for this round will automatically be zero.<br><br> This is a practice round, and it looks just like the game you will play.  Please select the number of cards you would like to turn over, given the number of loss cards and the amount that you can gain or lose if you turn over a gain or loss card, as shown below.  Please note: The computer will tell you how well you did after all 27 game rounds are over!</div><div class = instructBox><div><strong>How many cards do you want to take?</strong></div></div><div class = instructBoxRight><div>Current Round:  0</div></div><div class = instructBoxLeft><div>Game Round: 1</div></div><div class = instructBoxLeft1><div>Loss Amount: 750</div></div><div class = instructBoxRight1><div># of Loss Cards: 1</div></div><div class = instructBoxMiddle1><div>Gain Amount: 10</div></div><div class = buttonbox3><button type='button' class = select-button2 id = 1 onclick = chooseButton(this.id)>1</button><button type='button' class = select-button2 id = 2 onclick = chooseButton1(this.id)>2</button><button type='button' class = select-button2 id = 3 onclick = chooseButton1(this.id)>3</button><button type='button' class = select-button2 id = 4 onclick = chooseButton1(this.id)>4</button><button type='button' class = select-button2 id = 5 onclick = chooseButton1(this.id)>5</button><button type='button' class = select-button2 id = 6 onclick = chooseButton1(this.id)>6</button><button type='button' class = select-button2 id = 7 onclick = chooseButton1(this.id)>7</button><button type='button' class = select-button2 id = 8 onclick = chooseButton1(this.id)>8</button><button type='button' class = select-button2 id = 9 onclick = chooseButton1(this.id)>9</button><button type='button' class = select-button2 id = 10  onclick = chooseButton1(this.id)>10</button><button type='button' class = select-button2 id = 11  onclick = chooseButton1(this.id)>11</button><button type='button' class = select-button2 id = 12  onclick = chooseButton1(this.id)>12</button><button type='button' class = select-button2 id = 13  onclick = chooseButton1(this.id)>13</button><button type='button' class = select-button2 id = 14  onclick = chooseButton1(this.id)>14</button><button type='button' class = select-button2 id = 15  onclick = chooseButton1(this.id)>15</button><button type='button' class = select-button2 id = 16  onclick = chooseButton1(this.id)>16</button><button type='button' class = select-button2 id = 17  onclick = chooseButton1(this.id)>17</button><button type='button' class = select-button2 id = 18  onclick = chooseButton1(this.id)>18</button><button type='button' class = select-button2 id = 19  onclick = chooseButton1(this.id)>19</button><button type='button' class = select-button2 id = 20  onclick = chooseButton1(this.id)>20</button><button type='button' class = select-button2 id = 21  onclick = chooseButton1(this.id)>21</button><button type='button' class = select-button2 id = 22  onclick = chooseButton1(this.id)>22</button><button type='button' class = select-button2 id = 23  onclick = chooseButton1(this.id)>23</button><button type='button' class = select-button2 id = 24  onclick = chooseButton1(this.id)>24</button><button type='button' class = select-button2 id = 25  onclick = chooseButton1(this.id)>25</button><button type='button' class = select-button2 id = 26  onclick = chooseButton1(this.id)>26</button><button type='button' class = select-button2 id = 27  onclick = chooseButton1(this.id)>27</button><button type='button' class = select-button2 id = 28  onclick = chooseButton1(this.id)>28</button><button type='button' class = select-button2 id = 29  onclick = chooseButton1(this.id)>29</button><button type='button' class = select-button2 id = 30  onclick = chooseButton1(this.id)>30</button><button type='button' class = select-button2 id = 31  onclick = chooseButton1(this.id)>31</button><button type='button' class = select-button2 id = 32  onclick = chooseButton1(this.id)>32</button></div><div class = numbox3><div class = square2><input type='image' id = 'c1' src='/static/experiments/columbia_card_task_cold/images/beforeChosen.png'></div><div class = square2><input type='image' id = 'c5' src='/static/experiments/columbia_card_task_cold/images/beforeChosen.png'></div><div class = square2><input type='image' id = 'c9' src='/static/experiments/columbia_card_task_cold/images/beforeChosen.png'></div><div class = square2><input type='image' id = 'c13' src='/static/experiments/columbia_card_task_cold/images/beforeChosen.png'></div><div class = square2><input type='image' id = 'c17' src='/static/experiments/columbia_card_task_cold/images/beforeChosen.png'></div><div class = square2><input type='image' id = 'c21' src='/static/experiments/columbia_card_task_cold/images/beforeChosen.png'></div><div class = square2><input type='image' id = 'c25' src='/static/experiments/columbia_card_task_cold/images/beforeChosen.png'></div><div class = square2><input type='image' id = 'c29' src='/static/experiments/columbia_card_task_cold/images/beforeChosen.png'></div><div class = square2><input type='image' id = 'c2' src='/static/experiments/columbia_card_task_cold/images/beforeChosen.png'></div><div class = square2><input type='image' id = 'c6' src='/static/experiments/columbia_card_task_cold/images/beforeChosen.png'></div><div class = square2><input type='image' id = 'c10' src='/static/experiments/columbia_card_task_cold/images/beforeChosen.png'></div><div class = square2><input type='image' id = 'c14' src='/static/experiments/columbia_card_task_cold/images/beforeChosen.png'></div><div class = square2><input type='image' id = 'c18' src='/static/experiments/columbia_card_task_cold/images/beforeChosen.png'></div><div class = square2><input type='image' id = 'c22' src='/static/experiments/columbia_card_task_cold/images/beforeChosen.png'></div><div class = square2><input type='image' id = 'c26' src='/static/experiments/columbia_card_task_cold/images/beforeChosen.png'></div><div class = square2><input type='image' id = 'c30' src='/static/experiments/columbia_card_task_cold/images/beforeChosen.png'></div><div class = square2><input type='image' id = 'c3' src='/static/experiments/columbia_card_task_cold/images/beforeChosen.png'></div><div class = square2><input type='image' id = 'c7' src='/static/experiments/columbia_card_task_cold/images/beforeChosen.png'></div><div class = square2><input type='image' id = 'c11' src='/static/experiments/columbia_card_task_cold/images/beforeChosen.png'></div><div class = square2><input type='image' id = 'c15' src='/static/experiments/columbia_card_task_cold/images/beforeChosen.png'></div><div class = square2><input type='image' id = 'c19' src='/static/experiments/columbia_card_task_cold/images/beforeChosen.png'></div><div class = square2><input type='image' id = 'c23' src='/static/experiments/columbia_card_task_cold/images/beforeChosen.png'></div><div class = square2><input type='image' id = 'c27' src='/static/experiments/columbia_card_task_cold/images/beforeChosen.png'></div><div class = square2><input type='image' id = 'c31' src='/static/experiments/columbia_card_task_cold/images/beforeChosen.png'></div><div class = square2><input type='image' id = 'c4' src='/static/experiments/columbia_card_task_cold/images/beforeChosen.png'></div><div class = square2><input type='image' id = 'c8' src='/static/experiments/columbia_card_task_cold/images/beforeChosen.png'></div><div class = square2><input type='image' id = 'c12' src='/static/experiments/columbia_card_task_cold/images/beforeChosen.png'></div><div class = square2><input type='image' id = 'c16' src='/static/experiments/columbia_card_task_cold/images/beforeChosen.png'></div><div class = square2><input type='image' id = 'c20' src='/static/experiments/columbia_card_task_cold/images/beforeChosen.png'></div><div class = square2><input type='image' id = 'c24' src='/static/experiments/columbia_card_task_cold/images/beforeChosen.png'></div><div class = square2><input type='image' id = 'c28' src='/static/experiments/columbia_card_task_cold/images/beforeChosen.png'></div><div class = square2><input type='image' id = 'c32' src='/static/experiments/columbia_card_task_cold/images/beforeChosen.png'></div></div></p></div>		280949	1	0		instruction	2	0	poldrack-survey-multi-choice	44	"[{""page_index"":0,""viewing_time"":68672573},{""page_index"":1,""viewing_time"":40399},{""page_index"":0,""viewing_time"":366713},{""page_index"":1,""viewing_time"":1103977},{""page_index"":0,""viewing_time"":942},{""page_index"":1,""viewing_time"":840},{""page_index"":2,""viewing_time"":2517},{""page_index"":1,""viewing_time"":21200},{""page_index"":2,""viewing_time"":741148}]"
7ce0474b-9095-4507-a01b-767445a1c93d_3	7ce0474b-9095-4507-a01b-767445a1c93d	Mac OS X,10.10.5	Chrome,48.0.2564	Internal Test Battery	ian	ianeisenberg90@gmail.com	True	False	False	theories_of_willpower	Theories of Willpower Scale	http://pss.sagepub.com/content/early/2010/09/28/0956797610384745.full#sec-22	trm_56a91a3082c31					1000	AX			3	1454525256517	theories_of_willpower	test			0.0-2.0	13				tol_peg_1	1	1	none	2	[1, 6]	100293	6		1000		After a strenuous mental activity, your energy is depleted and you must rest to get it refuelled again.	Strongly agree	<div class = centerbox><div class = center-text>4 Digits</p></div>		280951	1	1000		practice_intro	2	1	poldrack-survey-multi-choice	44	
7ce0474b-9095-4507-a01b-767445a1c93d_4	7ce0474b-9095-4507-a01b-767445a1c93d	Mac OS X,10.10.5	Chrome,48.0.2564	Internal Test Battery	ian	ianeisenberg90@gmail.com	True	False	False	theories_of_willpower	Theories of Willpower Scale	http://pss.sagepub.com/content/early/2010/09/28/0956797610384745.full#sec-22	trm_56a91a3082c31					1410	global	True	49	4	1454525256518	theories_of_willpower	practice	1000	circle	0.0-2.0	49			triangle	tol_peg_3	1	1	[49, 50, 51, 52]	3	[1, 6]	100293	1		1410	1	When you have been working on a strenuous mental task, you feel energized and you are able to immediately start with another demanding activity.	Strongly agree	"<div class = centerbox><img src = ""/static/experiments/local_global/images/black_circleoftriangles.png""</img></div>"	0	280952	1	500		stim	2	2	poldrack-survey-multi-choice	44	"[{""page_index"":0,""viewing_time"":2773},{""page_index"":1,""viewing_time"":1318}]"
7ce0474b-9095-4507-a01b-767445a1c93d_5	7ce0474b-9095-4507-a01b-767445a1c93d	Mac OS X,10.10.5	Chrome,48.0.2564	Internal Test Battery	ian	ianeisenberg90@gmail.com	True	False	False	theories_of_willpower	Theories of Willpower Scale	http://pss.sagepub.com/content/early/2010/09/28/0956797610384745.full#sec-22	trm_56a91a3082c31					1083	global	False	49	5	1454525256520	theories_of_willpower	practice	1000	circle	0.0-2.0	50			X	tol_peg_2	1	1	[49, 50, 51, 52]	4	[1, 6]	100293	1		1083	2	Your mental stamina fuels itself. Even after strenuous mental exertion, you can continue doing more of it.	Strongly agree	"<div class = centerbox><img src = ""/static/experiments/local_global/images/black_circleofXs.png""</img></div>"	0	280953	1	500		stim	2	3	poldrack-survey-multi-choice	44	
7ce0474b-9095-4507-a01b-767445a1c93d_6	7ce0474b-9095-4507-a01b-767445a1c93d	Mac OS X,10.10.5	Chrome,48.0.2564	Internal Test Battery	ian	ianeisenberg90@gmail.com	True	False	False	theories_of_willpower	Theories of Willpower Scale	http://pss.sagepub.com/content/early/2010/09/28/0956797610384745.full#sec-22	trm_56a91a3082c31					1883	global	True	52	6	1454525256520	theories_of_willpower	practice	1000	square	0.0-2.0	52			square		1	1	[49, 50, 51, 52]	5	[1, 6]	100293	6		1883		When you have completed a strenuous mental activity, you cannot start another activity immediately with the same concentration because you have to recover your mental energy again.	Strongly agree	"<div class = centerbox><img src = ""/static/experiments/local_global/images/black_squareofsquares.png""</img></div>"	0	280954	1	500		stim	2	4	poldrack-survey-multi-choice	44	"[{""page_index"":0,""viewing_time"":63980},{""page_index"":1,""viewing_time"":108556}]"
7ce0474b-9095-4507-a01b-767445a1c93d_7	7ce0474b-9095-4507-a01b-767445a1c93d	Mac OS X,10.10.5	Chrome,48.0.2564	Internal Test Battery	ian	ianeisenberg90@gmail.com	True	False	False	theories_of_willpower	Theories of Willpower Scale	http://pss.sagepub.com/content/early/2010/09/28/0956797610384745.full#sec-22	trm_56a91a3082c31					2177	local	True	50	7	1454525256521	theories_of_willpower	practice	1000	circle	0.0-2.0	50	55	117	X		1	1	[49, 50, 51, 52]	6	[1, 6]	100293	1	54	2177		After a strenuous mental activity, you feel energized for further challenging activities.	Strongly agree	"<div class = centerbox><img src = ""/static/experiments/local_global/images/blue_circleofXs.png""</img></div>"	1	280955	1	500		stim	2	5	poldrack-survey-multi-choice	44	
7ce0474b-9095-4507-a01b-767445a1c93d_8	7ce0474b-9095-4507-a01b-767445a1c93d	Mac OS X,10.10.5	Chrome,48.0.2564	Internal Test Battery	ian	ianeisenberg90@gmail.com	True	False	False	theories_of_willpower	Theories of Willpower Scale	http://pss.sagepub.com/content/early/2010/09/28/0956797610384745.full#sec-22	trm_56a91a3082c31					2172	global	True	51	8	1454525256522	theories_of_willpower	practice	1000	triangle	0.0-2.0	51	75	61	square	tol_peg_1	1	2	[49, 50, 51, 52]	1	[1, 6]	9731	6	55	2172	1	Resisting temptations makes you feel more vulnerable to the next temptations that come along.	Strongly agree	"<div class = centerbox><img src = ""/static/experiments/local_global/images/black_triangleofsquares.png""</img></div>"	1	280956	1	500		stim	2	6	poldrack-survey-multi-choice	44	
60fc067b-e0cc-46c6-9d00-0fa3d4323841_0	60fc067b-e0cc-46c6-9d00-0fa3d4323841	Linux,	Chrome,48.0.2564	Internal Test Battery	ian	ianeisenberg90@gmail.com	True	False	False	eating_questionnaire	R18: Three factor eating questionnaire	http://jn.nutrition.org/content/134/9/2372.long#sec-18	trm_56aac5f6e4702									0	1454453131622	eating_questionnaire				0.0-0.0	13										2846									2849					0		text	27	
60fc067b-e0cc-46c6-9d00-0fa3d4323841_1	60fc067b-e0cc-46c6-9d00-0fa3d4323841	Linux,	Chrome,48.0.2564	Internal Test Battery	ian	ianeisenberg90@gmail.com	True	False	False	eating_questionnaire	R18: Three factor eating questionnaire	http://jn.nutrition.org/content/134/9/2372.long#sec-18	trm_56aac5f6e4702									1	1454453184903	eating_questionnaire				0.0-1.0											52274									56129					1		poldrack-instructions	27	"[{""page_index"":0,""viewing_time"":52273}]"
60fc067b-e0cc-46c6-9d00-0fa3d4323841_2	60fc067b-e0cc-46c6-9d00-0fa3d4323841	Linux,	Chrome,48.0.2564	Internal Test Battery	ian	ianeisenberg90@gmail.com	True															2	1454453221222					0.0-2.0																				92440					2		poldrack-survey-multi-choice	27	
7ce0474b-9095-4507-a01b-767445a1c93d_9	7ce0474b-9095-4507-a01b-767445a1c93d	Mac OS X,10.10.5	Chrome,48.0.2564	Internal Test Battery	ian	ianeisenberg90@gmail.com	True	False	False	theories_of_willpower	Theories of Willpower Scale	http://pss.sagepub.com/content/early/2010/09/28/0956797610384745.full#sec-22	trm_56a91a3082c31					1292	local	True	51	9	1454525256523	theories_of_willpower	practice	1000	square	0.0-2.0	51	25	53	triangle	tol_peg_3	1	2	[49, 50, 51, 52]	2	[1, 6]	9731	6	19	1292	2	When situations accumulate that challenge you with temptations, it gets more and more difficult to resist the temptations.	Strongly agree	"<div class = centerbox><img src = ""/static/experiments/local_global/images/blue_squareoftriangles.png""</img></div>"	1	280957	1	500		stim	2	7	poldrack-survey-multi-choice	44	
7ce0474b-9095-4507-a01b-767445a1c93d_10	7ce0474b-9095-4507-a01b-767445a1c93d	Mac OS X,10.10.5	Chrome,48.0.2564	Internal Test Battery	ian	ianeisenberg90@gmail.com	True	False	False	theories_of_willpower	Theories of Willpower Scale	http://pss.sagepub.com/content/early/2010/09/28/0956797610384745.full#sec-22	trm_56a91a3082c31					1522	local	True	49	10	1454525256524	theories_of_willpower	practice	1000	square	0.0-2.0	49	85	7	circle	tol_peg_1	1	2	[49, 50, 51, 52]	3	[1, 6]	9731	1	31	1522		If you have just resisted a strong temptation, you feel strengthened and you can withstand any new temptations.	Strongly agree	"<div class = centerbox><img src = ""/static/experiments/local_global/images/blue_squareofcircles.png""</img></div>"	0	280958	1	500		stim	2	8	poldrack-survey-multi-choice	44	"[{""page_index"":0,""viewing_time"":24801}]"
7ce0474b-9095-4507-a01b-767445a1c93d_11	7ce0474b-9095-4507-a01b-767445a1c93d	Mac OS X,10.10.5	Chrome,48.0.2564	Internal Test Battery	ian	ianeisenberg90@gmail.com	True	False	False	theories_of_willpower	Theories of Willpower Scale	http://pss.sagepub.com/content/early/2010/09/28/0956797610384745.full#sec-22	trm_56a91a3082c31					2130	global	True	51	11	1454525256525	theories_of_willpower	practice	1000	triangle	0.0-2.0	51	25	19	X	tol_peg_2	1	2	[49, 50, 51, 52]	4	[1, 6]	9731	6	14	2130		It is particularly difficult to resist a temptation after resisting another temptation right before.	Strongly agree	"<div class = centerbox><img src = ""/static/experiments/local_global/images/black_triangleofXs.png""</img></div>"	1	280959	1	500		stim	2	9	poldrack-survey-multi-choice	44	
7ce0474b-9095-4507-a01b-767445a1c93d_12	7ce0474b-9095-4507-a01b-767445a1c93d	Mac OS X,10.10.5	Chrome,48.0.2564	Internal Test Battery	ian	ianeisenberg90@gmail.com	True	False	False	theories_of_willpower	Theories of Willpower Scale	http://pss.sagepub.com/content/early/2010/09/28/0956797610384745.full#sec-22	trm_56a91a3082c31					1969	local	False	49	12	1454525256526	theories_of_willpower	practice	1000	square	0.0-2.0	52	50	160	circle		1	2	[49, 50, 51, 52]	5	[1, 6]	9731	1	47	1969		Resisting temptations activates your willpower and you become even better able to face new upcoming temptations.	Strongly agree	"<div class = centerbox><img src = ""/static/experiments/local_global/images/blue_squareofcircles.png""</img></div>"	1	280960	1	500		stim	2	10	poldrack-survey-multi-choice	44	
7ce0474b-9095-4507-a01b-767445a1c93d_13	7ce0474b-9095-4507-a01b-767445a1c93d	Mac OS X,10.10.5	Chrome,48.0.2564	Internal Test Battery	ian	ianeisenberg90@gmail.com	True	False	False	theories_of_willpower	Theories of Willpower Scale	http://pss.sagepub.com/content/early/2010/09/28/0956797610384745.full#sec-22	trm_56a91a3082c31					2534	global	False	51	13	1454525256527	theories_of_willpower	practice	1000	triangle	0.0-2.0	52	35	13	square		1	2	[49, 50, 51, 52]	6	[1, 6]	9731	1	15	2534		Your capacity to resist temptations is not limited. Even after you have resisted a strong temptation you can control yourself right afterwards.	Strongly agree	"<div class = centerbox><img src = ""/static/experiments/local_global/images/black_triangleofsquares.png""</img></div>"	1	280961	1	500		stim	2	11	poldrack-survey-multi-choice	44	
7ce0474b-9095-4507-a01b-767445a1c93d_14	7ce0474b-9095-4507-a01b-767445a1c93d	Mac OS X,10.10.5	Chrome,48.0.2564	Internal Test Battery	ian	ianeisenberg90@gmail.com	True	False	False	theories_of_willpower	Theories of Willpower Scale	http://pss.sagepub.com/content/early/2010/09/28/0956797610384745.full#sec-22	trm_56a91a3082c31					1408	local	True	50	14	1454525256531	theories_of_willpower	practice	1000	square	0.0-2.0	50	60	14	X	tol_peg_2	1	1	[49, 50, 51, 52]	13	[1, 2]	110039	1	25	1408		Do you think an evening out is more successful if it is unplanned or arranged at the last moment?	No	"<div class = centerbox><img src = ""/static/experiments/local_global/images/blue_squareofXs.png""</img></div>"	1	280963	1	500		stim	2	12	poldrack-survey-multi-choice	44	"[{""page_index"":0,""viewing_time"":100293},{""page_index"":1,""viewing_time"":9731}]"
7ce0474b-9095-4507-a01b-767445a1c93d_15	7ce0474b-9095-4507-a01b-767445a1c93d	Mac OS X,10.10.5	Chrome,48.0.2564	Internal Test Battery	ian	ianeisenberg90@gmail.com	True	False	False	theories_of_willpower	Theories of Willpower Scale	http://pss.sagepub.com/content/early/2010/09/28/0956797610384745.full#sec-22	trm_56a91a3082c31					2665	local	True	50	15	1454525259103	theories_of_willpower	practice	1000	triangle	0.0-3.0	13	80	192	X	tol_peg_3	1	1	[49, 50, 51, 52]	14	[1, 2]	1565	1	78	2665		Do you usually work quickly, without bothering to check?	No	"<div class = centerbox><img src = ""/static/experiments/local_global/images/blue_triangleofXs.png""</img></div>"	0	283536	1	500		stim	3	13	text	44	"[{""page_index"":0,""viewing_time"":29605}]"
7ce0474b-9095-4507-a01b-767445a1c93d_16	7ce0474b-9095-4507-a01b-767445a1c93d	Mac OS X,10.10.5	Chrome,48.0.2564	Internal Test Battery	ian	ianeisenberg90@gmail.com	True	False	False	local_global	Local-Global	http://www.sciencedirect.com/science/article/pii/S001002859990734X	trm_4f241d7adf14e					3236	local	True	51	16	1454524843128	local_global	practice	1000	X	0.0-3.0-12.0	51	55	62	triangle	tol_peg_1	1	1	[49, 50, 51, 52]	15	[1, 2]	3236	1	40	3236		Do you often change your interests?	No	"<div class = centerbox><img src = ""/static/experiments/local_global/images/blue_Xoftriangles.png""</img></div>"	0	71118852	1	500		stim	16	14	poldrack-categorize	32	
7ce0474b-9095-4507-a01b-767445a1c93d_17	7ce0474b-9095-4507-a01b-767445a1c93d	Mac OS X,10.10.5	Chrome,48.0.2564	Internal Test Battery	ian	ianeisenberg90@gmail.com	True	False	False	local_global	Local-Global	http://www.sciencedirect.com/science/article/pii/S001002859990734X	trm_4f241d7adf14e					2105	local	True	52	17	1454524846743	local_global	practice	1000	square	0.0-3.0-13.0	52	30	7	square	tol_peg_2	2	2	[49, 50, 51, 52]	1	[1, 2]	2105	2	11	2105		Would you enjoy water skiing?	Yes	"<div class = centerbox><img src = ""/static/experiments/local_global/images/blue_squareofsquares.png""</img></div>"	0	71122468	1	500		stim	17	15	poldrack-categorize	32	
7ce0474b-9095-4507-a01b-767445a1c93d_18	7ce0474b-9095-4507-a01b-767445a1c93d	Mac OS X,10.10.5	Chrome,48.0.2564	Internal Test Battery	ian	ianeisenberg90@gmail.com	True	False	False	local_global	Local-Global	http://www.sciencedirect.com/science/article/pii/S001002859990734X	trm_4f241d7adf14e					2577	global	False	52	18	1454524850831	local_global	practice	1000	square	0.0-3.0-14.0	49	75	119	circle		2	2	[49, 50, 51, 52]	2	[1, 2]	2577	1	67	2577		Usually do you prefer to stick to brands you know are reliable to trying new ones on the chance of finding something better?	Yes	"<div class = centerbox><img src = ""/static/experiments/local_global/images/black_squareofcircles.png""</img></div>"	1	71126555	1	500		stim	18	16	poldrack-categorize	32	
7ce0474b-9095-4507-a01b-767445a1c93d_19	7ce0474b-9095-4507-a01b-767445a1c93d	Mac OS X,10.10.5	Chrome,48.0.2564	Internal Test Battery	ian	ianeisenberg90@gmail.com	True	False	False	local_global	Local-Global	http://www.sciencedirect.com/science/article/pii/S001002859990734X	trm_4f241d7adf14e					1154	local	True	49	19	1454524853493	local_global	practice	1000	triangle	0.0-3.0-15.0	49	35	186	circle		2	2	[49, 50, 51, 52]	3	[1, 2]	1154	2	34	1154		Do you quite enjoy taking risks?	Yes	"<div class = centerbox><img src = ""/static/experiments/local_global/images/blue_triangleofcircles.png""</img></div>"	1	71129218	1	500		stim	19	17	poldrack-categorize	32	
7ce0474b-9095-4507-a01b-767445a1c93d_20	7ce0474b-9095-4507-a01b-767445a1c93d	Mac OS X,10.10.5	Chrome,48.0.2564	Internal Test Battery	ian	ianeisenberg90@gmail.com	True	False	False	local_global	Local-Global	http://www.sciencedirect.com/science/article/pii/S001002859990734X	trm_4f241d7adf14e					2000	local	True	52	20	1454524855610	local_global	practice	1000	circle	0.0-3.0-16.0	-1	50	21	square	tol_peg_1	2	2	[37, 40]	4	[1, 2]	-1	2	27	2000		Would you enjoy parachute jumping?	Yes	<div class = centerbox><div class = fixation>+</div></div>	0	71131335	1	0		stim	20	18	poldrack-categorize	32	
7ce0474b-9095-4507-a01b-767445a1c93d_21	7ce0474b-9095-4507-a01b-767445a1c93d	Mac OS X,10.10.5	Chrome,48.0.2564	Internal Test Battery	ian	ianeisenberg90@gmail.com	True	False	False	local_global	Local-Global	http://www.sciencedirect.com/science/article/pii/S001002859990734X	trm_4f241d7adf14e					3620	local	False	52	21	1454524858623	local_global	practice	1000	X	0.0-3.0-17.0	50	85	91	square	tol_peg_3	2	2	[49, 50, 51, 52]	5	[1, 2]	3620	1	69	3620		Do you think hitch-hiking is too dangerous a way to travel?	Yes	"<div class = centerbox><img src = ""/static/experiments/local_global/images/blue_circleofsquares.png""</img></div>"	0	71134348	1	500		stim	21	19	poldrack-categorize	32	
7ce0474b-9095-4507-a01b-767445a1c93d_22	7ce0474b-9095-4507-a01b-767445a1c93d	Mac OS X,10.10.5	Chrome,48.0.2564	Internal Test Battery	ian	ianeisenberg90@gmail.com	True	False	False	local_global	Local-Global	http://www.sciencedirect.com/science/article/pii/S001002859990734X	trm_4f241d7adf14e					2125	global	True	50	22	1454524862256	local_global	practice	1000	X	0.0-3.0-18.0	50	60	89	circle	tol_peg_2	2	2	[49, 50, 51, 52]	6	[1, 2]	2125	2	49	2125		Do you like diving off the highboard?	Yes	"<div class = centerbox><img src = ""/static/experiments/local_global/images/black_Xofcircles.png""</img></div>"	1	71137980	1	500		stim	22	20	poldrack-categorize	32	
7ce0474b-9095-4507-a01b-767445a1c93d_23	7ce0474b-9095-4507-a01b-767445a1c93d	Mac OS X,10.10.5	Chrome,48.0.2564	Internal Test Battery	ian	ianeisenberg90@gmail.com	True	False	False	local_global	Local-Global	http://www.sciencedirect.com/science/article/pii/S001002859990734X	trm_4f241d7adf14e					896	local	False	50	23	1454524864663	local_global	practice	1000	triangle	0.0-3.0-19.0	49	85	157	X	tol_peg_1	2	2	[49, 50, 51, 52]	7	[1, 2]	896	2	80	896		Do you welcome new and exciting experiences and sensations even if they are a little frightening and unconventional?	Yes	"<div class = centerbox><img src = ""/static/experiments/local_global/images/blue_triangleofXs.png""</img></div>"	1	71140388	1	500		stim	23	21	poldrack-categorize	32	
7ce0474b-9095-4507-a01b-767445a1c93d_24	7ce0474b-9095-4507-a01b-767445a1c93d	Mac OS X,10.10.5	Chrome,48.0.2564	Internal Test Battery	ian	ianeisenberg90@gmail.com	True	False	False	local_global	Local-Global	http://www.sciencedirect.com/science/article/pii/S001002859990734X	trm_4f241d7adf14e					1269	global	False	49	24	1454524867438	local_global	practice	1000	circle	0.0-3.0-20.0	50	35	29	X	tol_peg_3	2	2	[49, 50, 51, 52]	8	[1, 2]	1269	2	24	1269		Would you like to learn to fly an aeroplane?	Yes	"<div class = centerbox><img src = ""/static/experiments/local_global/images/black_circleofXs.png""</img></div>"	1	71143163	1	500		stim	24	22	poldrack-categorize	32	
7ce0474b-9095-4507-a01b-767445a1c93d_25	7ce0474b-9095-4507-a01b-767445a1c93d	Mac OS X,10.10.5	Chrome,48.0.2564	Internal Test Battery	ian	ianeisenberg90@gmail.com	True	False	False	local_global	Local-Global	http://www.sciencedirect.com/science/article/pii/S001002859990734X	trm_4f241d7adf14e					1430	global	True	51	25	1454524870375	local_global	practice	1000	triangle	0.0-3.0-21.0	51	80	14	triangle	tol_peg_2	2	2	[49, 50, 51, 52]	9	[1, 2]	1430	1	33	1430		Do you find it hard to understand people who risk their necks climbing mountains?	Yes	"<div class = centerbox><img src = ""/static/experiments/local_global/images/black_triangleoftriangles.png""</img></div>"	0	71146100	1	500		stim	25	23	poldrack-categorize	32	
7ce0474b-9095-4507-a01b-767445a1c93d_26	7ce0474b-9095-4507-a01b-767445a1c93d	Mac OS X,10.10.5	Chrome,48.0.2564	Internal Test Battery	ian	ianeisenberg90@gmail.com	True	False	False	local_global	Local-Global	http://www.sciencedirect.com/science/article/pii/S001002859990734X	trm_4f241d7adf14e					2418	global	True	51	26	1454524874301	local_global	practice	1000	triangle	0.0-3.0-22.0	51	30	179	circle		2	2	[49, 50, 51, 52]	10	[1, 2]	2418	2	28	2418		Do you sometimes like doing things that are a bit frightening?	Yes	"<div class = centerbox><img src = ""/static/experiments/local_global/images/black_triangleofcircles.png""</img></div>"	0	71150026	1	500		stim	26	24	poldrack-categorize	32	
7ce0474b-9095-4507-a01b-767445a1c93d_27	7ce0474b-9095-4507-a01b-767445a1c93d	Mac OS X,10.10.5	Chrome,48.0.2564	Internal Test Battery	ian	ianeisenberg90@gmail.com	True	False	False	local_global	Local-Global	http://www.sciencedirect.com/science/article/pii/S001002859990734X	trm_4f241d7adf14e					5412	local	True	52	27	1454524881222	local_global	practice	1000	X	0.0-3.0-23.0	52	50	30	square		2	2	[49, 50, 51, 52]	11	[1, 2]	5412	1	34	5412		Generally do you prefer to enter cold sea water gradually, to diving or jumping straight in?	Yes	"<div class = centerbox><img src = ""/static/experiments/local_global/images/blue_Xofsquares.png""</img></div>"	1	71156947	1	500		stim	27	25	poldrack-categorize	32	
7ce0474b-9095-4507-a01b-767445a1c93d_28	7ce0474b-9095-4507-a01b-767445a1c93d	Mac OS X,10.10.5	Chrome,48.0.2564	Internal Test Battery	ian	ianeisenberg90@gmail.com	True	False	False	local_global	Local-Global	http://www.sciencedirect.com/science/article/pii/S001002859990734X	trm_4f241d7adf14e					2597	local	True	49	28	1454524885327	local_global	practice	1000	X	0.0-3.0-24.0	49	30	80	circle	tol_peg_2	2	2	[49, 50, 51, 52]	12	[1, 2]	2597	2	25	2597		Would you enjoy the sensation of skiing very fast down a high mountain slope?	Yes	"<div class = centerbox><img src = ""/static/experiments/local_global/images/blue_Xofcircles.png""</img></div>"	0	71161052	1	500		stim	28	26	poldrack-categorize	32	
7ce0474b-9095-4507-a01b-767445a1c93d_29	7ce0474b-9095-4507-a01b-767445a1c93d	Mac OS X,10.10.5	Chrome,48.0.2564	Internal Test Battery	ian	ianeisenberg90@gmail.com	True	False	False	local_global	Local-Global	http://www.sciencedirect.com/science/article/pii/S001002859990734X	trm_4f241d7adf14e					2617	local	True	51	29	1454524889452	local_global	practice	1000	X	0.0-3.0-25.0	51	75	20	triangle	tol_peg_3	2	2	[49, 50, 51, 52]	13	[1, 2]	2617	2	41	2617		Would you like to go scuba diving?	Yes	"<div class = centerbox><img src = ""/static/experiments/local_global/images/blue_Xoftriangles.png""</img></div>"	0	71165176	1	500		stim	29	27	poldrack-categorize	32	
7ce0474b-9095-4507-a01b-767445a1c93d_30	7ce0474b-9095-4507-a01b-767445a1c93d	Mac OS X,10.10.5	Chrome,48.0.2564	Internal Test Battery	ian	ianeisenberg90@gmail.com	True	False	False	local_global	Local-Global	http://www.sciencedirect.com/science/article/pii/S001002859990734X	trm_4f241d7adf14e					2651	global	False	52	30	1454524893612	local_global	practice	1000	square	0.0-3.0-26.0	49	60	111	circle	tol_peg_1	2	2	[49, 50, 51, 52]	14	[1, 2]	2651	2	54	2651		Would you enjoy fast driving?	Yes	"<div class = centerbox><img src = ""/static/experiments/local_global/images/black_squareofcircles.png""</img></div>"	1	71169336	1	500		stim	30	28	poldrack-categorize	32	
7ce0474b-9095-4507-a01b-767445a1c93d_31	7ce0474b-9095-4507-a01b-767445a1c93d	Mac OS X,10.10.5	Chrome,48.0.2564	Internal Test Battery	ian	ianeisenberg90@gmail.com	True	False	False	local_global	Local-Global	http://www.sciencedirect.com/science/article/pii/S001002859990734X	trm_4f241d7adf14e					1052	global	True	50	31	1454524896175	local_global	practice	1000	X	0.0-3.0-27.0	50	80	30	circle	tol_peg_2	2	2	[49, 50, 51, 52]	15	[1, 2]	1052	2	54	1052		Would you lke to go pot-holing?	Yes	"<div class = centerbox><img src = ""/static/experiments/local_global/images/black_Xofcircles.png""</img></div>"	0	71171899	1	500		stim	31	29	poldrack-categorize	32	
7ce0474b-9095-4507-a01b-767445a1c93d_32	7ce0474b-9095-4507-a01b-767445a1c93d	Mac OS X,10.10.5	Chrome,48.0.2564	Internal Test Battery	ian	ianeisenberg90@gmail.com	True	False	False	local_global	Local-Global	http://www.sciencedirect.com/science/article/pii/S001002859990734X	trm_4f241d7adf14e					730	global	True	52	32	1454524898414	local_global	practice	1000	square	0.0-3.0-28.0	52	25	136	circle	tol_peg_3	2	2	[49, 50, 51, 52]	16	[1, 2]	730	1	22	730		Would you be put off a job involving quite a bit of danger?	Yes	"<div class = centerbox><img src = ""/static/experiments/local_global/images/black_squareofcircles.png""</img></div>"	0	71174139	1	500		stim	32	30	poldrack-categorize	32	
7ce0474b-9095-4507-a01b-767445a1c93d_33	7ce0474b-9095-4507-a01b-767445a1c93d	Mac OS X,10.10.5	Chrome,48.0.2564	Internal Test Battery	ian	ianeisenberg90@gmail.com	True	False	False	local_global	Local-Global	http://www.sciencedirect.com/science/article/pii/S001002859990734X	trm_4f241d7adf14e					2530	local	True	51	33	1454524902454	local_global	practice	1000	X	0.0-3.0-29.0	51	55	7	triangle	tol_peg_2			[49, 50, 51, 52]			2530		20	2530				"<div class = centerbox><img src = ""/static/experiments/local_global/images/blue_Xoftriangles.png""</img></div>"	1	71178179		500		stim	33		poldrack-categorize	32	"[{""page_index"":0,""viewing_time"":25236},{""page_index"":1,""viewing_time"":89870}]"
7ce0474b-9095-4507-a01b-767445a1c93d_34	7ce0474b-9095-4507-a01b-767445a1c93d	Mac OS X,10.10.5	Chrome,48.0.2564	Internal Test Battery	ian	ianeisenberg90@gmail.com	True	False	False	local_global	Local-Global	http://www.sciencedirect.com/science/article/pii/S001002859990734X	trm_4f241d7adf14e					4818	local	True	49	34	1454524908783	local_global	practice	1000	X	0.0-3.0-30.0	49			circle				[49, 50, 51, 52]			4818			4818				"<div class = centerbox><img src = ""/static/experiments/local_global/images/blue_Xofcircles.png""</img></div>"	0	71184507		500		stim	34		poldrack-categorize	32	
7ce0474b-9095-4507-a01b-767445a1c93d_35	7ce0474b-9095-4507-a01b-767445a1c93d	Mac OS X,10.10.5	Chrome,48.0.2564	Internal Test Battery	ian	ianeisenberg90@gmail.com	True	False	False	local_global	Local-Global	http://www.sciencedirect.com/science/article/pii/S001002859990734X	trm_4f241d7adf14e					1576	global	True	50	35	1454524911870	local_global	practice	1000	X	0.0-3.0-31.0	50			X				[49, 50, 51, 52]			1576			1576				"<div class = centerbox><img src = ""/static/experiments/local_global/images/black_XofXs.png""</img></div>"	1	71187594		500		stim	35		poldrack-categorize	32	
7ce0474b-9095-4507-a01b-767445a1c93d_36	7ce0474b-9095-4507-a01b-767445a1c93d	Mac OS X,10.10.5	Chrome,48.0.2564	Internal Test Battery	ian	ianeisenberg90@gmail.com	True	False	False	local_global	Local-Global	http://www.sciencedirect.com/science/article/pii/S001002859990734X	trm_4f241d7adf14e					2001	local	True	52	36	1454524915381	local_global	practice	1000	square	0.0-3.0-32.0	52			square	tol_peg_1			[49, 50, 51, 52]			2001			2001				"<div class = centerbox><img src = ""/static/experiments/local_global/images/blue_squareofsquares.png""</img></div>"	1	71191106		500		stim	36		poldrack-categorize	32	
7ce0474b-9095-4507-a01b-767445a1c93d_37	7ce0474b-9095-4507-a01b-767445a1c93d	Mac OS X,10.10.5	Chrome,48.0.2564	Internal Test Battery	ian	ianeisenberg90@gmail.com	True	False	False	local_global	Local-Global	http://www.sciencedirect.com/science/article/pii/S001002859990734X	trm_4f241d7adf14e					1938	global	True	52	37	1454524918827	local_global	practice	1000	square	0.0-3.0-33.0	52			circle	tol_peg_2			[49, 50, 51, 52]			1938			1938				"<div class = centerbox><img src = ""/static/experiments/local_global/images/black_squareofcircles.png""</img></div>"	1	71194552		500		stim	37		poldrack-categorize	32	
7ce0474b-9095-4507-a01b-767445a1c93d_38	7ce0474b-9095-4507-a01b-767445a1c93d	Mac OS X,10.10.5	Chrome,48.0.2564	Internal Test Battery	ian	ianeisenberg90@gmail.com	True	False	False	local_global	Local-Global	http://www.sciencedirect.com/science/article/pii/S001002859990734X	trm_4f241d7adf14e					2000	global		50	38	1454524968659	local_global	practice		X	0.0-3.0-34.0	-1			triangle	tol_peg_1			[37, 40]			-1			2000				<div class = centerbox><div class = fixation>+</div></div>	0	71244383		0		stim	38		poldrack-categorize	32	
7ce0474b-9095-4507-a01b-767445a1c93d_39	7ce0474b-9095-4507-a01b-767445a1c93d	Mac OS X,10.10.5	Chrome,48.0.2564	Internal Test Battery	ian	ianeisenberg90@gmail.com	True	False	False	dot_pattern_expectancy	Dot Pattern Expectancy	http://www.mitpressjournals.org/doi/pdf/10.1162/jocn_a_00709	trm_515495b718cd6					640	AX		-1	39	1454609601868	dot_pattern_expectancy	test			0.0-38.0	-1				tol_peg_3			[32]			640			640				"<div class = centerbox><div  id = ""stim1""></div></div>"		224609		0		cue	39		poldrack-single-stim	59	
7ce0474b-9095-4507-a01b-767445a1c93d_40	7ce0474b-9095-4507-a01b-767445a1c93d	Mac OS X,10.10.5	Chrome,48.0.2564	Internal Test Battery	ian	ianeisenberg90@gmail.com	True	False	False	dot_pattern_expectancy	Dot Pattern Expectancy	http://www.mitpressjournals.org/doi/pdf/10.1162/jocn_a_00709	trm_515495b718cd6					500	nogo		-1	40	1454609602288	dot_pattern_expectancy	test			0.0-39.0	-1				tol_peg_2			none			-1			500				"<div class = centerbox><div class = img-container><img src = ""/static/experiments/dot_pattern_expectancy/images/cue4.png""</img></div></div>"		225028		0		fixation	40		poldrack-single-stim	59	
7ce0474b-9095-4507-a01b-767445a1c93d_41	7ce0474b-9095-4507-a01b-767445a1c93d	Mac OS X,10.10.5	Chrome,48.0.2564	Internal Test Battery	ian	ianeisenberg90@gmail.com	True	False	False	dot_pattern_expectancy	Dot Pattern Expectancy	http://www.mitpressjournals.org/doi/pdf/10.1162/jocn_a_00709	trm_515495b718cd6					1000	AX		-1	41	1454609602695	dot_pattern_expectancy	test			0.0-40.0	-1				tol_peg_1			none			-1			1000				<div class = centerbox><div class = center-text>Respond Faster!</p></div>		225435		0		probe	41		poldrack-single-stim	59	
7ce0474b-9095-4507-a01b-767445a1c93d_42	7ce0474b-9095-4507-a01b-767445a1c93d	Mac OS X,10.10.5	Chrome,48.0.2564	Internal Test Battery	ian	ianeisenberg90@gmail.com	True	False	False	dot_pattern_expectancy	Dot Pattern Expectancy	http://www.mitpressjournals.org/doi/pdf/10.1162/jocn_a_00709	trm_515495b718cd6					813	go		32	42	1454609602761	dot_pattern_expectancy	test			0.0-41.0	32				tol_peg_3			[32]			813			813				"<div class = centerbox><div id = ""stim2""></div></div>"		225502		0		feedback	42		poldrack-single-stim	59	
7ce0474b-9095-4507-a01b-767445a1c93d_43	7ce0474b-9095-4507-a01b-767445a1c93d	Mac OS X,10.10.5	Chrome,48.0.2564	Internal Test Battery	ian	ianeisenberg90@gmail.com	True	False	False	dot_pattern_expectancy	Dot Pattern Expectancy	http://www.mitpressjournals.org/doi/pdf/10.1162/jocn_a_00709	trm_515495b718cd6					500	AX		-1	43	1454609603266	dot_pattern_expectancy	test			0.0-42.0	-1				tol_peg_1			none			-1			500				"<div class = centerbox><div class = img-container><img src = ""/static/experiments/dot_pattern_expectancy/images/cue4.png""</img></div></div>"		226006		0		cue	43		poldrack-single-stim	59	
7ce0474b-9095-4507-a01b-767445a1c93d_44	7ce0474b-9095-4507-a01b-767445a1c93d	Mac OS X,10.10.5	Chrome,48.0.2564	Internal Test Battery	ian	ianeisenberg90@gmail.com	True	False	False	dot_pattern_expectancy	Dot Pattern Expectancy	http://www.mitpressjournals.org/doi/pdf/10.1162/jocn_a_00709	trm_515495b718cd6					2000	go		32	44	1454609603521	dot_pattern_expectancy	test			0.0-43.0	-1							none			-1			2000				"<div class = tol_canvas><div class=""tol_vertical_line""></div></div><div class = tol_your_board><div class = tol_base></div><div class = tol_board_label><strong>Your Board</strong></div><div id = tol_peg_1><div class = tol_peg></div></div><div class = special id = tol_peg_1 onclick = ""pegClick(this.id)""><div class = ""tol_ball tol_Red""><div class = tol_ball_label>R</div></div><div class = ""tol_ball tol_Green""><div class = tol_ball_label>G</div></div></div><div id = tol_peg_2><div class = tol_peg></div></div><div class = special id = tol_peg_2 onclick = ""pegClick(this.id)""><div class = ""tol_ball tol_Blue""><div class = tol_ball_label>B</div></div></div><div id = tol_peg_3><div class = tol_peg></div></div><div class = special id = tol_peg_3 onclick = ""pegClick(this.id)""></div></div><div class = tol_peg_board><div class = tol_base></div><div class = tol_board_label><strong>Target Board</strong></div><div id = tol_peg_1><div class = tol_peg></div></div><div class = special id = tol_peg_1 onclick = ""pegClick(this.id)""><div class = ""tol_ball tol_Red""><div class = tol_ball_label>R</div></div><div class = ""tol_ball tol_Green""><div class = tol_ball_label>G</div></div></div><div id = tol_peg_2><div class = tol_peg></div></div><div class = special id = tol_peg_2 onclick = ""pegClick(this.id)""><div class = ""tol_ball tol_Blue""><div class = tol_ball_label>B</div></div></div><div id = tol_peg_3><div class = tol_peg></div></div><div class = special id = tol_peg_3 onclick = ""pegClick(this.id)""></div></div><div class = tol_feedbackbox><p class = center-text>You got it!</p></div>"		226262		500		fixation	44		poldrack-single-stim	59	
7ce0474b-9095-4507-a01b-767445a1c93d_45	7ce0474b-9095-4507-a01b-767445a1c93d	Mac OS X,10.10.5	Chrome,48.0.2564	Internal Test Battery	ian	ianeisenberg90@gmail.com	True	False	False	dot_pattern_expectancy	Dot Pattern Expectancy	http://www.mitpressjournals.org/doi/pdf/10.1162/jocn_a_00709	trm_515495b718cd6					1000	AX		32	45	1454609603702	dot_pattern_expectancy	test			0.0-44.0	-1							none			-1			1000				<div class = centerbox><div class = center-text>Respond Faster!</p></div>		226442		0		probe	45		poldrack-single-stim	59	
7ce0474b-9095-4507-a01b-767445a1c93d_46	7ce0474b-9095-4507-a01b-767445a1c93d	Mac OS X,10.10.5	Chrome,48.0.2564	Internal Test Battery	ian	ianeisenberg90@gmail.com	True	False	False	dot_pattern_expectancy	Dot Pattern Expectancy	http://www.mitpressjournals.org/doi/pdf/10.1162/jocn_a_00709	trm_515495b718cd6					1500	go		32	46	1454609603792	dot_pattern_expectancy	test			0.0-45.0	-1				tol_peg_1			[37, 40]			-1			500				"<div class = centerbox><div class = img-container><img src = ""/static/experiments/dot_pattern_expectancy/images/probe4.png""</img></div></div>"		226532		0		feedback	46		poldrack-single-stim	59	
7ce0474b-9095-4507-a01b-767445a1c93d_47	7ce0474b-9095-4507-a01b-767445a1c93d	Mac OS X,10.10.5	Chrome,48.0.2564	Internal Test Battery	ian	ianeisenberg90@gmail.com	True	False	False	dot_pattern_expectancy	Dot Pattern Expectancy	http://www.mitpressjournals.org/doi/pdf/10.1162/jocn_a_00709	trm_515495b718cd6					2000	AX		32	47	1454609603871	dot_pattern_expectancy	test			0.0-46.0	-1				-1			[37, 40]			-1			2000				<div class = centerbox><div class = fixation>+</div></div>		226611		0		cue	47		poldrack-single-stim	59	
7ce0474b-9095-4507-a01b-767445a1c93d_48	7ce0474b-9095-4507-a01b-767445a1c93d	Mac OS X,10.10.5	Chrome,48.0.2564	Internal Test Battery	ian	ianeisenberg90@gmail.com	True	False	False	dot_pattern_expectancy	Dot Pattern Expectancy	http://www.mitpressjournals.org/doi/pdf/10.1162/jocn_a_00709	trm_515495b718cd6					2000	go		32	48	1454609604217	dot_pattern_expectancy	test			0.0-47.0	-1							none			-1			2000				"<div class = tol_canvas><div class=""tol_vertical_line""></div></div><div class = tol_your_board><div class = tol_base></div><div class = tol_board_label><strong>Your Board</strong></div><div id = tol_peg_1><div class = tol_peg></div></div><div class = special id = tol_peg_1 onclick = ""pegClick(this.id)""><div class = ""tol_ball tol_Green""><div class = tol_ball_label>G</div></div></div><div id = tol_peg_2><div class = tol_peg></div></div><div class = special id = tol_peg_2 onclick = ""pegClick(this.id)""><div class = ""tol_ball tol_Blue""><div class = tol_ball_label>B</div></div></div><div id = tol_peg_3><div class = tol_peg></div></div><div class = special id = tol_peg_3 onclick = ""pegClick(this.id)""></div></div><div class = tol_peg_board><div class = tol_base></div><div class = tol_board_label><strong>Target Board</strong></div><div id = tol_peg_1><div class = tol_peg></div></div><div class = special id = tol_peg_1 onclick = ""pegClick(this.id)""><div class = ""tol_ball tol_Blue""><div class = tol_ball_label>B</div></div></div><div id = tol_peg_2><div class = tol_peg></div></div><div class = special id = tol_peg_2 onclick = ""pegClick(this.id)""><div class = ""tol_ball tol_Red""><div class = tol_ball_label>R</div></div><div class = ""tol_ball tol_Green""><div class = tol_ball_label>G</div></div></div><div id = tol_peg_3><div class = tol_peg></div></div><div class = special id = tol_peg_3 onclick = ""pegClick(this.id)""></div></div><div class = tol_feedbackbox><p class = center-text>Didn't get that one.</p></div>"		226958		500		fixation	48		poldrack-single-stim	59	
7ce0474b-9095-4507-a01b-767445a1c93d_49	7ce0474b-9095-4507-a01b-767445a1c93d	Mac OS X,10.10.5	Chrome,48.0.2564	Internal Test Battery	ian	ianeisenberg90@gmail.com	True	False	False	dot_pattern_expectancy	Dot Pattern Expectancy	http://www.mitpressjournals.org/doi/pdf/10.1162/jocn_a_00709	trm_515495b718cd6					500	AX		32	49	1454609604297	dot_pattern_expectancy	test			0.0-48.0	-1							none			-1			500				"<div class = centerbox><div class = img-container><img src = ""/static/experiments/dot_pattern_expectancy/images/cue4.png""</img></div></div>"		227037		0		probe	49		poldrack-single-stim	59	
7ce0474b-9095-4507-a01b-767445a1c93d_50	7ce0474b-9095-4507-a01b-767445a1c93d	Mac OS X,10.10.5	Chrome,48.0.2564	Internal Test Battery	ian	ianeisenberg90@gmail.com	True	False	False	dot_pattern_expectancy	Dot Pattern Expectancy	http://www.mitpressjournals.org/doi/pdf/10.1162/jocn_a_00709	trm_515495b718cd6					1000	nogo		-1	50	1454609604709	dot_pattern_expectancy	test			0.0-49.0	-1				tol_peg_1			none			-1			1000				<div class = centerbox><div class = center-text>Respond Faster!</p></div>		227450		0		feedback	50		poldrack-single-stim	59	
7ce0474b-9095-4507-a01b-767445a1c93d_51	7ce0474b-9095-4507-a01b-767445a1c93d	Mac OS X,10.10.5	Chrome,48.0.2564	Internal Test Battery	ian	ianeisenberg90@gmail.com	True	False	False	dot_pattern_expectancy	Dot Pattern Expectancy	http://www.mitpressjournals.org/doi/pdf/10.1162/jocn_a_00709	trm_515495b718cd6					1500	AX		32	51	1454609605029	dot_pattern_expectancy	test			0.0-50.0	-1				tol_peg_2			[37, 40]			-1			500				"<div class = centerbox><div class = img-container><img src = ""/static/experiments/dot_pattern_expectancy/images/probe4.png""</img></div></div>"		227769		0		cue	51		poldrack-single-stim	59	
7ce0474b-9095-4507-a01b-767445a1c93d_52	7ce0474b-9095-4507-a01b-767445a1c93d	Mac OS X,10.10.5	Chrome,48.0.2564	Internal Test Battery	ian	ianeisenberg90@gmail.com	True	False	False	dot_pattern_expectancy	Dot Pattern Expectancy	http://www.mitpressjournals.org/doi/pdf/10.1162/jocn_a_00709	trm_515495b718cd6					500	nogo		-1	52	1454609605215	dot_pattern_expectancy	test			0.0-51.0	-1				tol_peg_1			none			-1			500				"<div class = centerbox><div class = img-container><img src = ""/static/experiments/dot_pattern_expectancy/images/cue4.png""</img></div></div>"		227956		0		fixation	52		poldrack-single-stim	59	
7ce0474b-9095-4507-a01b-767445a1c93d_53	7ce0474b-9095-4507-a01b-767445a1c93d	Mac OS X,10.10.5	Chrome,48.0.2564	Internal Test Battery	ian	ianeisenberg90@gmail.com	True	False	False	dot_pattern_expectancy	Dot Pattern Expectancy	http://www.mitpressjournals.org/doi/pdf/10.1162/jocn_a_00709	trm_515495b718cd6					2000	AX		32	53	1454609605271	dot_pattern_expectancy	test			0.0-52.0	-1				tol_peg_3			[37, 40]			-1			2000				<div class = centerbox><div class = fixation>+</div></div>		228012		0		probe	53		poldrack-single-stim	59	
7ce0474b-9095-4507-a01b-767445a1c93d_54	7ce0474b-9095-4507-a01b-767445a1c93d	Mac OS X,10.10.5	Chrome,48.0.2564	Internal Test Battery	ian	ianeisenberg90@gmail.com	True	False	False	dot_pattern_expectancy	Dot Pattern Expectancy	http://www.mitpressjournals.org/doi/pdf/10.1162/jocn_a_00709	trm_515495b718cd6					1000	go		32	54	1454609605300	dot_pattern_expectancy	test			0.0-53.0	-1				tol_peg_2			none			-1			1000				<div class = centerbox><div class = center-text>Respond Faster!</p></div>		228041		0		feedback	54		poldrack-single-stim	59	
7ce0474b-9095-4507-a01b-767445a1c93d_55	7ce0474b-9095-4507-a01b-767445a1c93d	Mac OS X,10.10.5	Chrome,48.0.2564	Internal Test Battery	ian	ianeisenberg90@gmail.com	True	False	False	dot_pattern_expectancy	Dot Pattern Expectancy	http://www.mitpressjournals.org/doi/pdf/10.1162/jocn_a_00709	trm_515495b718cd6					1500	AX		-1	55	1454609605720	dot_pattern_expectancy	test			0.0-54.0	-1				tol_peg_1			[37, 40]			-1			500				"<div class = centerbox><div class = img-container><img src = ""/static/experiments/dot_pattern_expectancy/images/probe4.png""</img></div></div>"		228460		0		cue	55		poldrack-single-stim	59	
7ce0474b-9095-4507-a01b-767445a1c93d_56	7ce0474b-9095-4507-a01b-767445a1c93d	Mac OS X,10.10.5	Chrome,48.0.2564	Internal Test Battery	ian	ianeisenberg90@gmail.com	True	False	False	dot_pattern_expectancy	Dot Pattern Expectancy	http://www.mitpressjournals.org/doi/pdf/10.1162/jocn_a_00709	trm_515495b718cd6					500	nogo		-1	56	1454609605805	dot_pattern_expectancy	test			0.0-55.0	-1				tol_peg_2			none			-1			500				"<div class = centerbox><div class = img-container><img src = ""/static/experiments/dot_pattern_expectancy/images/cue4.png""</img></div></div>"		228545		0		fixation	56		poldrack-single-stim	59	
7ce0474b-9095-4507-a01b-767445a1c93d_57	7ce0474b-9095-4507-a01b-767445a1c93d	Mac OS X,10.10.5	Chrome,48.0.2564	Internal Test Battery	ian	ianeisenberg90@gmail.com	True	False	False	dot_pattern_expectancy	Dot Pattern Expectancy	http://www.mitpressjournals.org/doi/pdf/10.1162/jocn_a_00709	trm_515495b718cd6					2000	AX		32	57	1454609605875	dot_pattern_expectancy	test			0.0-56.0	-1				tol_peg_1			[37, 40]			-1			2000				<div class = centerbox><div class = fixation>+</div></div>		228615		0		probe	57		poldrack-single-stim	59	
7ce0474b-9095-4507-a01b-767445a1c93d_58	7ce0474b-9095-4507-a01b-767445a1c93d	Mac OS X,10.10.5	Chrome,48.0.2564	Internal Test Battery	ian	ianeisenberg90@gmail.com	True	False	False	dot_pattern_expectancy	Dot Pattern Expectancy	http://www.mitpressjournals.org/doi/pdf/10.1162/jocn_a_00709	trm_515495b718cd6					1000	nogo		-1	58	1454609606277	dot_pattern_expectancy	test			0.0-57.0	-1							none			-1			1000				<div class = centerbox><div class = center-text>Respond Faster!</p></div>		229017		0		feedback	58		poldrack-single-stim	59	
7ce0474b-9095-4507-a01b-767445a1c93d_59	7ce0474b-9095-4507-a01b-767445a1c93d	Mac OS X,10.10.5	Chrome,48.0.2564	Internal Test Battery	ian	ianeisenberg90@gmail.com	True	False	False	dot_pattern_expectancy	Dot Pattern Expectancy	http://www.mitpressjournals.org/doi/pdf/10.1162/jocn_a_00709	trm_515495b718cd6					1500	BX		-1	59	1454609606722	dot_pattern_expectancy	test			0.0-58.0	-1							[37, 40]			-1			500				"<div class = centerbox><div class = img-container><img src = ""/static/experiments/dot_pattern_expectancy/images/probe4.png""</img></div></div>"		229462		0		cue	59		poldrack-single-stim	59	
7ce0474b-9095-4507-a01b-767445a1c93d_60	7ce0474b-9095-4507-a01b-767445a1c93d	Mac OS X,10.10.5	Chrome,48.0.2564	Internal Test Battery	ian	ianeisenberg90@gmail.com	True	False	False	dot_pattern_expectancy	Dot Pattern Expectancy	http://www.mitpressjournals.org/doi/pdf/10.1162/jocn_a_00709	trm_515495b718cd6					500	nogo		-1	60	1454609606781	dot_pattern_expectancy	test			0.0-59.0	-1				tol_peg_1			none			-1			500				"<div class = centerbox><div class = img-container><img src = ""/static/experiments/dot_pattern_expectancy/images/cue1.png""</img></div></div>"		229521		0		fixation	60		poldrack-single-stim	59	
7ce0474b-9095-4507-a01b-767445a1c93d_61	7ce0474b-9095-4507-a01b-767445a1c93d	Mac OS X,10.10.5	Chrome,48.0.2564	Internal Test Battery	ian	ianeisenberg90@gmail.com	True	False	False	dot_pattern_expectancy	Dot Pattern Expectancy	http://www.mitpressjournals.org/doi/pdf/10.1162/jocn_a_00709	trm_515495b718cd6					1000	BX		-1	61	1454609606880	dot_pattern_expectancy	test			0.0-60.0	-1				tol_peg_2			none			-1			1000				<div class = centerbox><div class = center-text>Respond Faster!</p></div>		229620		0		probe	61		poldrack-single-stim	59	
7ce0474b-9095-4507-a01b-767445a1c93d_62	7ce0474b-9095-4507-a01b-767445a1c93d	Mac OS X,10.10.5	Chrome,48.0.2564	Internal Test Battery	ian	ianeisenberg90@gmail.com	True	False	False	dot_pattern_expectancy	Dot Pattern Expectancy	http://www.mitpressjournals.org/doi/pdf/10.1162/jocn_a_00709	trm_515495b718cd6					2000	go		32	62	1454609607034	dot_pattern_expectancy	test			0.0-61.0	-1				tol_peg_1			[37, 40]			-1			2000				<div class = centerbox><div class = fixation>+</div></div>		229775		0		feedback	62		poldrack-single-stim	59	
7ce0474b-9095-4507-a01b-767445a1c93d_63	7ce0474b-9095-4507-a01b-767445a1c93d	Mac OS X,10.10.5	Chrome,48.0.2564	Internal Test Battery	ian	ianeisenberg90@gmail.com	True	False	False	dot_pattern_expectancy	Dot Pattern Expectancy	http://www.mitpressjournals.org/doi/pdf/10.1162/jocn_a_00709	trm_515495b718cd6					1500	AX		-1	63	1454609607310	dot_pattern_expectancy	test			0.0-62.0	-1				tol_peg_3			[37, 40]			-1			500				"<div class = centerbox><div class = img-container><img src = ""/static/experiments/dot_pattern_expectancy/images/probe4.png""</img></div></div>"		230050		0		cue	63		poldrack-single-stim	59	
7ce0474b-9095-4507-a01b-767445a1c93d_64	7ce0474b-9095-4507-a01b-767445a1c93d	Mac OS X,10.10.5	Chrome,48.0.2564	Internal Test Battery	ian	ianeisenberg90@gmail.com	True	False	False	dot_pattern_expectancy	Dot Pattern Expectancy	http://www.mitpressjournals.org/doi/pdf/10.1162/jocn_a_00709	trm_515495b718cd6					500	nogo		-1	64	1454609607537	dot_pattern_expectancy	test			0.0-63.0	-1				tol_peg_2			none			-1			500				"<div class = centerbox><div class = img-container><img src = ""/static/experiments/dot_pattern_expectancy/images/cue4.png""</img></div></div>"		230278		0		fixation	64		poldrack-single-stim	59	
7ce0474b-9095-4507-a01b-767445a1c93d_65	7ce0474b-9095-4507-a01b-767445a1c93d	Mac OS X,10.10.5	Chrome,48.0.2564	Internal Test Battery	ian	ianeisenberg90@gmail.com	True	False	False	dot_pattern_expectancy	Dot Pattern Expectancy	http://www.mitpressjournals.org/doi/pdf/10.1162/jocn_a_00709	trm_515495b718cd6					2000	AX		-1	65	1454609607724	dot_pattern_expectancy	test			0.0-64.0	-1				tol_peg_1			[37, 40]			-1			2000				<div class = centerbox><div class = fixation>+</div></div>		230464		0		probe	65		poldrack-single-stim	59	
7ce0474b-9095-4507-a01b-767445a1c93d_66	7ce0474b-9095-4507-a01b-767445a1c93d	Mac OS X,10.10.5	Chrome,48.0.2564	Internal Test Battery	ian	ianeisenberg90@gmail.com	True	False	False	dot_pattern_expectancy	Dot Pattern Expectancy	http://www.mitpressjournals.org/doi/pdf/10.1162/jocn_a_00709	trm_515495b718cd6					1000	go		32	66	1454609607884	dot_pattern_expectancy	test			0.0-65.0	-1				-1			none			-1			1000				<div class = centerbox><div class = center-text>Respond Faster!</p></div>		230625		0		feedback	66		poldrack-single-stim	59	
7ce0474b-9095-4507-a01b-767445a1c93d_67	7ce0474b-9095-4507-a01b-767445a1c93d	Mac OS X,10.10.5	Chrome,48.0.2564	Internal Test Battery	ian	ianeisenberg90@gmail.com	True	False	False	dot_pattern_expectancy	Dot Pattern Expectancy	http://www.mitpressjournals.org/doi/pdf/10.1162/jocn_a_00709	trm_515495b718cd6					1500	BY		32	67	1454609608284	dot_pattern_expectancy	test			0.0-66.0	-1							[37, 40]			-1			500				"<div class = centerbox><div class = img-container><img src = ""/static/experiments/dot_pattern_expectancy/images/probe4.png""</img></div></div>"		231025		0		cue	67		poldrack-single-stim	59	
7ce0474b-9095-4507-a01b-767445a1c93d_68	7ce0474b-9095-4507-a01b-767445a1c93d	Mac OS X,10.10.5	Chrome,48.0.2564	Internal Test Battery	ian	ianeisenberg90@gmail.com	True	False	False	dot_pattern_expectancy	Dot Pattern Expectancy	http://www.mitpressjournals.org/doi/pdf/10.1162/jocn_a_00709	trm_515495b718cd6					500	go		32	68	1454609608389	dot_pattern_expectancy	test			0.0-67.0	-1							none			-1			500				"<div class = centerbox><div class = img-container><img src = ""/static/experiments/dot_pattern_expectancy/images/cue6.png""</img></div></div>"		231130		0		fixation	68		poldrack-single-stim	59	
7ce0474b-9095-4507-a01b-767445a1c93d_69	7ce0474b-9095-4507-a01b-767445a1c93d	Mac OS X,10.10.5	Chrome,48.0.2564	Internal Test Battery	ian	ianeisenberg90@gmail.com	True	False	False	dot_pattern_expectancy	Dot Pattern Expectancy	http://www.mitpressjournals.org/doi/pdf/10.1162/jocn_a_00709	trm_515495b718cd6					2000	BY		32	69	1454609608726	dot_pattern_expectancy	test			0.0-68.0	-1				-1			[37, 40]			-1			2000				<div class = centerbox><div class = fixation>+</div></div>		231466		0		probe	69		poldrack-single-stim	59	
7ce0474b-9095-4507-a01b-767445a1c93d_70	7ce0474b-9095-4507-a01b-767445a1c93d	Mac OS X,10.10.5	Chrome,48.0.2564	Internal Test Battery	ian	ianeisenberg90@gmail.com	True	False	False	dot_pattern_expectancy	Dot Pattern Expectancy	http://www.mitpressjournals.org/doi/pdf/10.1162/jocn_a_00709	trm_515495b718cd6					1000	go		32	70	1454609608731	dot_pattern_expectancy	test			0.0-69.0	-1							none			-1			1000				<div class = centerbox><div class = center-text>Respond Faster!</p></div>		231471		0		feedback	70		poldrack-single-stim	59	
7ce0474b-9095-4507-a01b-767445a1c93d_71	7ce0474b-9095-4507-a01b-767445a1c93d	Mac OS X,10.10.5	Chrome,48.0.2564	Internal Test Battery	ian	ianeisenberg90@gmail.com	True	False	False	dot_pattern_expectancy	Dot Pattern Expectancy	http://www.mitpressjournals.org/doi/pdf/10.1162/jocn_a_00709	trm_515495b718cd6					1500	BX		32	71	1454609609045	dot_pattern_expectancy	test			0.0-70.0	-1							[37, 40]			-1			500				"<div class = centerbox><div class = img-container><img src = ""/static/experiments/dot_pattern_expectancy/images/probe4.png""</img></div></div>"		231786		0		cue	71		poldrack-single-stim	59	
7ce0474b-9095-4507-a01b-767445a1c93d_72	7ce0474b-9095-4507-a01b-767445a1c93d	Mac OS X,10.10.5	Chrome,48.0.2564	Internal Test Battery	ian	ianeisenberg90@gmail.com	True	False	False	dot_pattern_expectancy	Dot Pattern Expectancy	http://www.mitpressjournals.org/doi/pdf/10.1162/jocn_a_00709	trm_515495b718cd6					500	go		32	72	1454609609235	dot_pattern_expectancy	test			0.0-71.0	-1							none			-1			500				"<div class = centerbox><div class = img-container><img src = ""/static/experiments/dot_pattern_expectancy/images/cue6.png""</img></div></div>"		231976		0		fixation	72		poldrack-single-stim	59	
7ce0474b-9095-4507-a01b-767445a1c93d_73	7ce0474b-9095-4507-a01b-767445a1c93d	Mac OS X,10.10.5	Chrome,48.0.2564	Internal Test Battery	ian	ianeisenberg90@gmail.com	True	False	False	dot_pattern_expectancy	Dot Pattern Expectancy	http://www.mitpressjournals.org/doi/pdf/10.1162/jocn_a_00709	trm_515495b718cd6					2000	BX		32	73	1454609609317	dot_pattern_expectancy	test			0.0-72.0	-1							[37, 40]			-1			2000				<div class = centerbox><div class = fixation>+</div></div>		232057		0		probe	73		poldrack-single-stim	59	
7ce0474b-9095-4507-a01b-767445a1c93d_74	7ce0474b-9095-4507-a01b-767445a1c93d	Mac OS X,10.10.5	Chrome,48.0.2564	Internal Test Battery	ian	ianeisenberg90@gmail.com	True	False	False	dot_pattern_expectancy	Dot Pattern Expectancy	http://www.mitpressjournals.org/doi/pdf/10.1162/jocn_a_00709	trm_515495b718cd6					1000	nogo		-1	74	1454609609730	dot_pattern_expectancy	test			0.0-73.0	-1							none			-1			1000				<div class = centerbox><div class = center-text>Respond Faster!</p></div>		232471		0		feedback	74		poldrack-single-stim	59	
7ce0474b-9095-4507-a01b-767445a1c93d_75	7ce0474b-9095-4507-a01b-767445a1c93d	Mac OS X,10.10.5	Chrome,48.0.2564	Internal Test Battery	ian	ianeisenberg90@gmail.com	True	False	False	dot_pattern_expectancy	Dot Pattern Expectancy	http://www.mitpressjournals.org/doi/pdf/10.1162/jocn_a_00709	trm_515495b718cd6					1500	AX		-1	75	1454609609895	dot_pattern_expectancy	test			0.0-74.0	-1							[37, 40]			-1			500				"<div class = centerbox><div class = img-container><img src = ""/static/experiments/dot_pattern_expectancy/images/probe1.png""</img></div></div>"		232635		0		cue	75		poldrack-single-stim	59	
7ce0474b-9095-4507-a01b-767445a1c93d_76	7ce0474b-9095-4507-a01b-767445a1c93d	Mac OS X,10.10.5	Chrome,48.0.2564	Internal Test Battery	ian	ianeisenberg90@gmail.com	True	False	False	dot_pattern_expectancy	Dot Pattern Expectancy	http://www.mitpressjournals.org/doi/pdf/10.1162/jocn_a_00709	trm_515495b718cd6					500	go		32	76	1454609610235	dot_pattern_expectancy	test			0.0-75.0	-1							none			-1			500				"<div class = centerbox><div class = img-container><img src = ""/static/experiments/dot_pattern_expectancy/images/cue4.png""</img></div></div>"		232975		0		fixation	76		poldrack-single-stim	59	
7ce0474b-9095-4507-a01b-767445a1c93d_77	7ce0474b-9095-4507-a01b-767445a1c93d	Mac OS X,10.10.5	Chrome,48.0.2564	Internal Test Battery	ian	ianeisenberg90@gmail.com	True	False	False	dot_pattern_expectancy	Dot Pattern Expectancy	http://www.mitpressjournals.org/doi/pdf/10.1162/jocn_a_00709	trm_515495b718cd6					2000	AX		32	77	1454609610288	dot_pattern_expectancy	test			0.0-76.0	-1							[37, 40]			-1			2000				<div class = centerbox><div class = fixation>+</div></div>		233028		0		probe	77		poldrack-single-stim	59	
7ce0474b-9095-4507-a01b-767445a1c93d_78	7ce0474b-9095-4507-a01b-767445a1c93d	Mac OS X,10.10.5	Chrome,48.0.2564	Internal Test Battery	ian	ianeisenberg90@gmail.com	True	False	False	dot_pattern_expectancy	Dot Pattern Expectancy	http://www.mitpressjournals.org/doi/pdf/10.1162/jocn_a_00709	trm_515495b718cd6					1000	nogo		-1	78	1454609610324	dot_pattern_expectancy	test			0.0-77.0	-1							none			-1			1000				<div class = centerbox><div class = center-text>Respond Faster!</p></div>		233064		0		feedback	78		poldrack-single-stim	59	
7ce0474b-9095-4507-a01b-767445a1c93d_79	7ce0474b-9095-4507-a01b-767445a1c93d	Mac OS X,10.10.5	Chrome,48.0.2564	Internal Test Battery	ian	ianeisenberg90@gmail.com	True	False	False	dot_pattern_expectancy	Dot Pattern Expectancy	http://www.mitpressjournals.org/doi/pdf/10.1162/jocn_a_00709	trm_515495b718cd6					1500	AX		32	79	1454609610738	dot_pattern_expectancy	test			0.0-78.0	-1							[37, 40]			-1			500				"<div class = centerbox><div class = img-container><img src = ""/static/experiments/dot_pattern_expectancy/images/probe4.png""</img></div></div>"		233479		0		cue	79		poldrack-single-stim	59	
7ce0474b-9095-4507-a01b-767445a1c93d_80	7ce0474b-9095-4507-a01b-767445a1c93d	Mac OS X,10.10.5	Chrome,48.0.2564	Internal Test Battery	ian	ianeisenberg90@gmail.com	True	False	False	dot_pattern_expectancy	Dot Pattern Expectancy	http://www.mitpressjournals.org/doi/pdf/10.1162/jocn_a_00709	trm_515495b718cd6	250	250	<div class = stopbox><div class = centered-shape id = stop-signal></div><div class = centered-shape id = stop-signal-inner></div></div>	go	500	go		32	80	1454609610828	dot_pattern_expectancy	test			0.0-79.0	-1							none			-1			500				"<div class = centerbox><div class = img-container><img src = ""/static/experiments/dot_pattern_expectancy/images/cue4.png""</img></div></div>"		233569		0		fixation	80		poldrack-single-stim	59	
7ce0474b-9095-4507-a01b-767445a1c93d_81	7ce0474b-9095-4507-a01b-767445a1c93d	Mac OS X,10.10.5	Chrome,48.0.2564	Internal Test Battery	ian	ianeisenberg90@gmail.com	True	False	False	dot_pattern_expectancy	Dot Pattern Expectancy	http://www.mitpressjournals.org/doi/pdf/10.1162/jocn_a_00709	trm_515495b718cd6					2000	AX		32	81	1454609611049	dot_pattern_expectancy	test			0.0-80.0	-1							[37, 40]			-1			2000				<div class = centerbox><div class = fixation>+</div></div>		233790		0		probe	81		poldrack-single-stim	59	
7ce0474b-9095-4507-a01b-767445a1c93d_82	7ce0474b-9095-4507-a01b-767445a1c93d	Mac OS X,10.10.5	Chrome,48.0.2564	Internal Test Battery	ian	ianeisenberg90@gmail.com	True	False	False	dot_pattern_expectancy	Dot Pattern Expectancy	http://www.mitpressjournals.org/doi/pdf/10.1162/jocn_a_00709	trm_515495b718cd6	250	250	<div class = stopbox><div class = centered-shape id = stop-signal></div><div class = centered-shape id = stop-signal-inner></div></div>	go	1000	nogo		-1	82	1454609611292	dot_pattern_expectancy	test			0.0-81.0	-1							none			-1			1000				<div class = centerbox><div class = center-text>Respond Faster!</p></div>		234032		0		feedback	82		poldrack-single-stim	59	
7ce0474b-9095-4507-a01b-767445a1c93d_83	7ce0474b-9095-4507-a01b-767445a1c93d	Mac OS X,10.10.5	Chrome,48.0.2564	Internal Test Battery	ian	ianeisenberg90@gmail.com	True	False	False	dot_pattern_expectancy	Dot Pattern Expectancy	http://www.mitpressjournals.org/doi/pdf/10.1162/jocn_a_00709	trm_515495b718cd6					1500	AX		32	83	1454609611738	dot_pattern_expectancy	test			0.0-82.0	-1							[37, 40]			-1			500				"<div class = centerbox><div class = img-container><img src = ""/static/experiments/dot_pattern_expectancy/images/probe4.png""</img></div></div>"		234479		0		cue	83		poldrack-single-stim	59	
7ce0474b-9095-4507-a01b-767445a1c93d_84	7ce0474b-9095-4507-a01b-767445a1c93d	Mac OS X,10.10.5	Chrome,48.0.2564	Internal Test Battery	ian	ianeisenberg90@gmail.com	True	False	False	dot_pattern_expectancy	Dot Pattern Expectancy	http://www.mitpressjournals.org/doi/pdf/10.1162/jocn_a_00709	trm_515495b718cd6	250	250	<div class = stopbox><div class = centered-shape id = stop-signal></div><div class = centered-shape id = stop-signal-inner></div></div>	go	500	nogo		-1	84	1454609611797	dot_pattern_expectancy	test			0.0-83.0	-1							none			-1			500				"<div class = centerbox><div class = img-container><img src = ""/static/experiments/dot_pattern_expectancy/images/cue4.png""</img></div></div>"		234537		0		fixation	84		poldrack-single-stim	59	
7ce0474b-9095-4507-a01b-767445a1c93d_85	7ce0474b-9095-4507-a01b-767445a1c93d	Mac OS X,10.10.5	Chrome,48.0.2564	Internal Test Battery	ian	ianeisenberg90@gmail.com	True	False	False	dot_pattern_expectancy	Dot Pattern Expectancy	http://www.mitpressjournals.org/doi/pdf/10.1162/jocn_a_00709	trm_515495b718cd6					2000	AX		32	85	1454609611902	dot_pattern_expectancy	test			0.0-84.0	-1							[37, 40]			-1			2000				<div class = centerbox><div class = fixation>+</div></div>		234643		0		probe	85		poldrack-single-stim	59	
7ce0474b-9095-4507-a01b-767445a1c93d_86	7ce0474b-9095-4507-a01b-767445a1c93d	Mac OS X,10.10.5	Chrome,48.0.2564	Internal Test Battery	ian	ianeisenberg90@gmail.com	True	False	False	dot_pattern_expectancy	Dot Pattern Expectancy	http://www.mitpressjournals.org/doi/pdf/10.1162/jocn_a_00709	trm_515495b718cd6	250	250	<div class = stopbox><div class = centered-shape id = stop-signal></div><div class = centered-shape id = stop-signal-inner></div></div>	go	1000	go		32	86	1454609612054	dot_pattern_expectancy	test			0.0-85.0	-1							none			-1			1000				<div class = centerbox><div class = center-text>Respond Faster!</p></div>		234794		0		feedback	86		poldrack-single-stim	59	
7ce0474b-9095-4507-a01b-767445a1c93d_87	7ce0474b-9095-4507-a01b-767445a1c93d	Mac OS X,10.10.5	Chrome,48.0.2564	Internal Test Battery	ian	ianeisenberg90@gmail.com	True	False	False	dot_pattern_expectancy	Dot Pattern Expectancy	http://www.mitpressjournals.org/doi/pdf/10.1162/jocn_a_00709	trm_515495b718cd6					1500	BX		32	87	1454609612337	dot_pattern_expectancy	test			0.0-86.0	-1							[37, 40]			-1			500				"<div class = centerbox><div class = img-container><img src = ""/static/experiments/dot_pattern_expectancy/images/probe4.png""</img></div></div>"		235077		0		cue	87		poldrack-single-stim	59	
7ce0474b-9095-4507-a01b-767445a1c93d_88	7ce0474b-9095-4507-a01b-767445a1c93d	Mac OS X,10.10.5	Chrome,48.0.2564	Internal Test Battery	ian	ianeisenberg90@gmail.com	True	False	False	dot_pattern_expectancy	Dot Pattern Expectancy	http://www.mitpressjournals.org/doi/pdf/10.1162/jocn_a_00709	trm_515495b718cd6	250	250	<div class = stopbox><div class = centered-shape id = stop-signal></div><div class = centered-shape id = stop-signal-inner></div></div>	stop	500	go		32	88	1454609612557	dot_pattern_expectancy	test			0.0-87.0	-1							none			-1			500				"<div class = centerbox><div class = img-container><img src = ""/static/experiments/dot_pattern_expectancy/images/cue6.png""</img></div></div>"		235297		0		fixation	88		poldrack-single-stim	59	
7ce0474b-9095-4507-a01b-767445a1c93d_89	7ce0474b-9095-4507-a01b-767445a1c93d	Mac OS X,10.10.5	Chrome,48.0.2564	Internal Test Battery	ian	ianeisenberg90@gmail.com	True	False	False	dot_pattern_expectancy	Dot Pattern Expectancy	http://www.mitpressjournals.org/doi/pdf/10.1162/jocn_a_00709	trm_515495b718cd6					2000	BX		32	89	1454609612745	dot_pattern_expectancy	test			0.0-88.0	-1							[37, 40]			-1			2000				<div class = centerbox><div class = fixation>+</div></div>		235485		0		probe	89		poldrack-single-stim	59	
7ce0474b-9095-4507-a01b-767445a1c93d_90	7ce0474b-9095-4507-a01b-767445a1c93d	Mac OS X,10.10.5	Chrome,48.0.2564	Internal Test Battery	ian	ianeisenberg90@gmail.com	True	False	False	dot_pattern_expectancy	Dot Pattern Expectancy	http://www.mitpressjournals.org/doi/pdf/10.1162/jocn_a_00709	trm_515495b718cd6	250	250	<div class = stopbox><div class = centered-shape id = stop-signal></div><div class = centered-shape id = stop-signal-inner></div></div>	go	1000	go		32	90	1454609612911	dot_pattern_expectancy	test			0.0-89.0	-1							none			-1			1000				<div class = centerbox><div class = center-text>Respond Faster!</p></div>		235652		0		feedback	90		poldrack-single-stim	59	
7ce0474b-9095-4507-a01b-767445a1c93d_91	7ce0474b-9095-4507-a01b-767445a1c93d	Mac OS X,10.10.5	Chrome,48.0.2564	Internal Test Battery	ian	ianeisenberg90@gmail.com	True	False	False	dot_pattern_expectancy	Dot Pattern Expectancy	http://www.mitpressjournals.org/doi/pdf/10.1162/jocn_a_00709	trm_515495b718cd6					1500	AY		-1	91	1454609613300	dot_pattern_expectancy	test			0.0-90.0	-1							[37, 40]			-1			500				"<div class = centerbox><div class = img-container><img src = ""/static/experiments/dot_pattern_expectancy/images/probe4.png""</img></div></div>"		236041		0		cue	91		poldrack-single-stim	59	
7ce0474b-9095-4507-a01b-767445a1c93d_92	7ce0474b-9095-4507-a01b-767445a1c93d	Mac OS X,10.10.5	Chrome,48.0.2564	Internal Test Battery	ian	ianeisenberg90@gmail.com	True	False	False	dot_pattern_expectancy	Dot Pattern Expectancy	http://www.mitpressjournals.org/doi/pdf/10.1162/jocn_a_00709	trm_515495b718cd6	250	250	<div class = stopbox><div class = centered-shape id = stop-signal></div><div class = centered-shape id = stop-signal-inner></div></div>	go	500	nogo		-1	92	1454609613414	dot_pattern_expectancy	test			0.0-91.0	-1							none			-1			500				"<div class = centerbox><div class = img-container><img src = ""/static/experiments/dot_pattern_expectancy/images/cue4.png""</img></div></div>"		236155		0		fixation	92		poldrack-single-stim	59	
7ce0474b-9095-4507-a01b-767445a1c93d_93	7ce0474b-9095-4507-a01b-767445a1c93d	Mac OS X,10.10.5	Chrome,48.0.2564	Internal Test Battery	ian	ianeisenberg90@gmail.com	True	False	False	dot_pattern_expectancy	Dot Pattern Expectancy	http://www.mitpressjournals.org/doi/pdf/10.1162/jocn_a_00709	trm_515495b718cd6					2000	AY		-1	93	1454609613741	dot_pattern_expectancy	test			0.0-92.0	-1							[37, 40]			-1			2000				<div class = centerbox><div class = fixation>+</div></div>		236482		0		probe	93		poldrack-single-stim	59	
7ce0474b-9095-4507-a01b-767445a1c93d_94	7ce0474b-9095-4507-a01b-767445a1c93d	Mac OS X,10.10.5	Chrome,48.0.2564	Internal Test Battery	ian	ianeisenberg90@gmail.com	True	False	False	dot_pattern_expectancy	Dot Pattern Expectancy	http://www.mitpressjournals.org/doi/pdf/10.1162/jocn_a_00709	trm_515495b718cd6	250	250	<div class = stopbox><div class = centered-shape id = stop-signal></div><div class = centered-shape id = stop-signal-inner></div></div>	stop	1000	go		32	94	1454609613750	dot_pattern_expectancy	test			0.0-93.0	-1							none			-1			1000				<div class = centerbox><div class = center-text>Respond Faster!</p></div>		236490		0		feedback	94		poldrack-single-stim	59	
7ce0474b-9095-4507-a01b-767445a1c93d_95	7ce0474b-9095-4507-a01b-767445a1c93d	Mac OS X,10.10.5	Chrome,48.0.2564	Internal Test Battery	ian	ianeisenberg90@gmail.com	True	False	False	dot_pattern_expectancy	Dot Pattern Expectancy	http://www.mitpressjournals.org/doi/pdf/10.1162/jocn_a_00709	trm_515495b718cd6					1500	AX		-1	95	1454609614061	dot_pattern_expectancy	test			0.0-94.0	-1							[37, 40]			-1			500				"<div class = centerbox><div class = img-container><img src = ""/static/experiments/dot_pattern_expectancy/images/probe4.png""</img></div></div>"		236801		0		cue	95		poldrack-single-stim	59	
7ce0474b-9095-4507-a01b-767445a1c93d_96	7ce0474b-9095-4507-a01b-767445a1c93d	Mac OS X,10.10.5	Chrome,48.0.2564	Internal Test Battery	ian	ianeisenberg90@gmail.com	True	False	False	dot_pattern_expectancy	Dot Pattern Expectancy	http://www.mitpressjournals.org/doi/pdf/10.1162/jocn_a_00709	trm_515495b718cd6	250	250	<div class = stopbox><div class = centered-shape id = stop-signal></div><div class = centered-shape id = stop-signal-inner></div></div>	go	500	go		32	96	1454609614257	dot_pattern_expectancy	test			0.0-95.0	-1							none			-1			500				"<div class = centerbox><div class = img-container><img src = ""/static/experiments/dot_pattern_expectancy/images/cue4.png""</img></div></div>"		236997		0		fixation	96		poldrack-single-stim	59	
7ce0474b-9095-4507-a01b-767445a1c93d_97	7ce0474b-9095-4507-a01b-767445a1c93d	Mac OS X,10.10.5	Chrome,48.0.2564	Internal Test Battery	ian	ianeisenberg90@gmail.com	True	False	False	dot_pattern_expectancy	Dot Pattern Expectancy	http://www.mitpressjournals.org/doi/pdf/10.1162/jocn_a_00709	trm_515495b718cd6					2000	AX		-1	97	1454609614345	dot_pattern_expectancy	test			0.0-96.0	-1							[37, 40]			-1			2000				<div class = centerbox><div class = fixation>+</div></div>		237086		0		probe	97		poldrack-single-stim	59	
7ce0474b-9095-4507-a01b-767445a1c93d_98	7ce0474b-9095-4507-a01b-767445a1c93d	Mac OS X,10.10.5	Chrome,48.0.2564	Internal Test Battery	ian	ianeisenberg90@gmail.com	True	False	False	dot_pattern_expectancy	Dot Pattern Expectancy	http://www.mitpressjournals.org/doi/pdf/10.1162/jocn_a_00709	trm_515495b718cd6	250	250	<div class = stopbox><div class = centered-shape id = stop-signal></div><div class = centered-shape id = stop-signal-inner></div></div>	go	1000	go		32	98	1454609614751	dot_pattern_expectancy	test			0.0-97.0	-1							none			-1			1000				<div class = centerbox><div class = center-text>Respond Faster!</p></div>		237492		0		feedback	98		poldrack-single-stim	59	
7ce0474b-9095-4507-a01b-767445a1c93d_99	7ce0474b-9095-4507-a01b-767445a1c93d	Mac OS X,10.10.5	Chrome,48.0.2564	Internal Test Battery	ian	ianeisenberg90@gmail.com	True	False	False	dot_pattern_expectancy	Dot Pattern Expectancy	http://www.mitpressjournals.org/doi/pdf/10.1162/jocn_a_00709	trm_515495b718cd6					1500	AX		32	99	1454609614919	dot_pattern_expectancy	test			0.0-98.0	-1							[37, 40]			-1			500				"<div class = centerbox><div class = img-container><img src = ""/static/experiments/dot_pattern_expectancy/images/probe5.png""</img></div></div>"		237660		0		cue	99		poldrack-single-stim	59	
7ce0474b-9095-4507-a01b-767445a1c93d_100	7ce0474b-9095-4507-a01b-767445a1c93d	Mac OS X,10.10.5	Chrome,48.0.2564	Internal Test Battery	ian	ianeisenberg90@gmail.com	True	False	False	dot_pattern_expectancy	Dot Pattern Expectancy	http://www.mitpressjournals.org/doi/pdf/10.1162/jocn_a_00709	trm_515495b718cd6	250	250	<div class = stopbox><div class = centered-shape id = stop-signal></div><div class = centered-shape id = stop-signal-inner></div></div>	go	500	nogo		-1	100	1454609615255	dot_pattern_expectancy	test			0.0-99.0	-1							none			-1			500				"<div class = centerbox><div class = img-container><img src = ""/static/experiments/dot_pattern_expectancy/images/cue4.png""</img></div></div>"		237996		0		fixation	100		poldrack-single-stim	59	
7ce0474b-9095-4507-a01b-767445a1c93d_101	7ce0474b-9095-4507-a01b-767445a1c93d	Mac OS X,10.10.5	Chrome,48.0.2564	Internal Test Battery	ian	ianeisenberg90@gmail.com	True	False	False	dot_pattern_expectancy	Dot Pattern Expectancy	http://www.mitpressjournals.org/doi/pdf/10.1162/jocn_a_00709	trm_515495b718cd6					2000	AX		32	101	1454609615303	dot_pattern_expectancy	test			0.0-100.0	-1							[37, 40]			-1			2000				<div class = centerbox><div class = fixation>+</div></div>		238044		0		probe	101		poldrack-single-stim	59	
7ce0474b-9095-4507-a01b-767445a1c93d_102	7ce0474b-9095-4507-a01b-767445a1c93d	Mac OS X,10.10.5	Chrome,48.0.2564	Internal Test Battery	ian	ianeisenberg90@gmail.com	True	False	False	dot_pattern_expectancy	Dot Pattern Expectancy	http://www.mitpressjournals.org/doi/pdf/10.1162/jocn_a_00709	trm_515495b718cd6	250	250	<div class = stopbox><div class = centered-shape id = stop-signal></div><div class = centered-shape id = stop-signal-inner></div></div>	stop	1000	go		32	102	1454609615351	dot_pattern_expectancy	test			0.0-101.0	-1							none			-1			1000				<div class = centerbox><div class = center-text>Respond Faster!</p></div>		238092		0		feedback	102		poldrack-single-stim	59	
7ce0474b-9095-4507-a01b-767445a1c93d_103	7ce0474b-9095-4507-a01b-767445a1c93d	Mac OS X,10.10.5	Chrome,48.0.2564	Internal Test Battery	ian	ianeisenberg90@gmail.com	True	False	False	dot_pattern_expectancy	Dot Pattern Expectancy	http://www.mitpressjournals.org/doi/pdf/10.1162/jocn_a_00709	trm_515495b718cd6					1500	AX		-1	103	1454609615761	dot_pattern_expectancy	test			0.0-102.0	-1							[37, 40]			-1			500				"<div class = centerbox><div class = img-container><img src = ""/static/experiments/dot_pattern_expectancy/images/probe4.png""</img></div></div>"		238501		0		cue	103		poldrack-single-stim	59	
7ce0474b-9095-4507-a01b-767445a1c93d_104	7ce0474b-9095-4507-a01b-767445a1c93d	Mac OS X,10.10.5	Chrome,48.0.2564	Internal Test Battery	ian	ianeisenberg90@gmail.com	True	False	False	dot_pattern_expectancy	Dot Pattern Expectancy	http://www.mitpressjournals.org/doi/pdf/10.1162/jocn_a_00709	trm_515495b718cd6	250	250	<div class = stopbox><div class = centered-shape id = stop-signal></div><div class = centered-shape id = stop-signal-inner></div></div>	go	500	go		32	104	1454609615856	dot_pattern_expectancy	test			0.0-103.0	-1							none			-1			500				"<div class = centerbox><div class = img-container><img src = ""/static/experiments/dot_pattern_expectancy/images/cue4.png""</img></div></div>"		238596		0		fixation	104		poldrack-single-stim	59	
7ce0474b-9095-4507-a01b-767445a1c93d_105	7ce0474b-9095-4507-a01b-767445a1c93d	Mac OS X,10.10.5	Chrome,48.0.2564	Internal Test Battery	ian	ianeisenberg90@gmail.com	True	False	False	dot_pattern_expectancy	Dot Pattern Expectancy	http://www.mitpressjournals.org/doi/pdf/10.1162/jocn_a_00709	trm_515495b718cd6					2000	AX		32	105	1454609616067	dot_pattern_expectancy	test			0.0-104.0	-1							[37, 40]			-1			2000				<div class = centerbox><div class = fixation>+</div></div>		238807		0		probe	105		poldrack-single-stim	59	
7ce0474b-9095-4507-a01b-767445a1c93d_106	7ce0474b-9095-4507-a01b-767445a1c93d	Mac OS X,10.10.5	Chrome,48.0.2564	Internal Test Battery	ian	ianeisenberg90@gmail.com	True	False	False	dot_pattern_expectancy	Dot Pattern Expectancy	http://www.mitpressjournals.org/doi/pdf/10.1162/jocn_a_00709	trm_515495b718cd6	250	250	<div class = stopbox><div class = centered-shape id = stop-signal></div><div class = centered-shape id = stop-signal-inner></div></div>	stop	1000	nogo		-1	106	1454609616310	dot_pattern_expectancy	test			0.0-105.0	-1							none			-1			1000				<div class = centerbox><div class = center-text>Respond Faster!</p></div>		239051		0		feedback	106		poldrack-single-stim	59	
7ce0474b-9095-4507-a01b-767445a1c93d_107	7ce0474b-9095-4507-a01b-767445a1c93d	Mac OS X,10.10.5	Chrome,48.0.2564	Internal Test Battery	ian	ianeisenberg90@gmail.com	True	False	False	dot_pattern_expectancy	Dot Pattern Expectancy	http://www.mitpressjournals.org/doi/pdf/10.1162/jocn_a_00709	trm_515495b718cd6					1500	AX		-1	107	1454609616761	dot_pattern_expectancy	test			0.0-106.0	-1							[37, 40]			-1			500				"<div class = centerbox><div class = img-container><img src = ""/static/experiments/dot_pattern_expectancy/images/probe4.png""</img></div></div>"		239502		0		cue	107		poldrack-single-stim	59	
7ce0474b-9095-4507-a01b-767445a1c93d_108	7ce0474b-9095-4507-a01b-767445a1c93d	Mac OS X,10.10.5	Chrome,48.0.2564	Internal Test Battery	ian	ianeisenberg90@gmail.com	True	False	False	dot_pattern_expectancy	Dot Pattern Expectancy	http://www.mitpressjournals.org/doi/pdf/10.1162/jocn_a_00709	trm_515495b718cd6	250	250	<div class = stopbox><div class = centered-shape id = stop-signal></div><div class = centered-shape id = stop-signal-inner></div></div>	go	500	nogo		-1	108	1454609616814	dot_pattern_expectancy	test			0.0-107.0	-1							none			-1			500				"<div class = centerbox><div class = img-container><img src = ""/static/experiments/dot_pattern_expectancy/images/cue4.png""</img></div></div>"		239554		0		fixation	108		poldrack-single-stim	59	
7ce0474b-9095-4507-a01b-767445a1c93d_109	7ce0474b-9095-4507-a01b-767445a1c93d	Mac OS X,10.10.5	Chrome,48.0.2564	Internal Test Battery	ian	ianeisenberg90@gmail.com	True	False	False	dot_pattern_expectancy	Dot Pattern Expectancy	http://www.mitpressjournals.org/doi/pdf/10.1162/jocn_a_00709	trm_515495b718cd6					2000	AX		32	109	1454609616922	dot_pattern_expectancy	test			0.0-108.0	-1							[37, 40]			-1			2000				<div class = centerbox><div class = fixation>+</div></div>		239663		0		probe	109		poldrack-single-stim	59	
7ce0474b-9095-4507-a01b-767445a1c93d_110	7ce0474b-9095-4507-a01b-767445a1c93d	Mac OS X,10.10.5	Chrome,48.0.2564	Internal Test Battery	ian	ianeisenberg90@gmail.com	True	False	False	dot_pattern_expectancy	Dot Pattern Expectancy	http://www.mitpressjournals.org/doi/pdf/10.1162/jocn_a_00709	trm_515495b718cd6	250	250	<div class = stopbox><div class = centered-shape id = stop-signal></div><div class = centered-shape id = stop-signal-inner></div></div>	go	1000	nogo		-1	110	1454609617073	dot_pattern_expectancy	test			0.0-109.0	-1							none			-1			1000				<div class = centerbox><div class = center-text>Respond Faster!</p></div>		239813		0		feedback	110		poldrack-single-stim	59	
7ce0474b-9095-4507-a01b-767445a1c93d_111	7ce0474b-9095-4507-a01b-767445a1c93d	Mac OS X,10.10.5	Chrome,48.0.2564	Internal Test Battery	ian	ianeisenberg90@gmail.com	True	False	False	dot_pattern_expectancy	Dot Pattern Expectancy	http://www.mitpressjournals.org/doi/pdf/10.1162/jocn_a_00709	trm_515495b718cd6					1500	AX		-1	111	1454609617361	dot_pattern_expectancy	test			0.0-110.0	-1							[37, 40]			-1			500				"<div class = centerbox><div class = img-container><img src = ""/static/experiments/dot_pattern_expectancy/images/probe4.png""</img></div></div>"		240101		0		cue	111		poldrack-single-stim	59	
7ce0474b-9095-4507-a01b-767445a1c93d_112	7ce0474b-9095-4507-a01b-767445a1c93d	Mac OS X,10.10.5	Chrome,48.0.2564	Internal Test Battery	ian	ianeisenberg90@gmail.com	True	False	False	dot_pattern_expectancy	Dot Pattern Expectancy	http://www.mitpressjournals.org/doi/pdf/10.1162/jocn_a_00709	trm_515495b718cd6	250	250	<div class = stopbox><div class = centered-shape id = stop-signal></div><div class = centered-shape id = stop-signal-inner></div></div>	go	500	nogo		-1	112	1454609617578	dot_pattern_expectancy	test			0.0-111.0	-1							none			-1			500				"<div class = centerbox><div class = img-container><img src = ""/static/experiments/dot_pattern_expectancy/images/cue4.png""</img></div></div>"		240318		0		fixation	112		poldrack-single-stim	59	
7ce0474b-9095-4507-a01b-767445a1c93d_113	7ce0474b-9095-4507-a01b-767445a1c93d	Mac OS X,10.10.5	Chrome,48.0.2564	Internal Test Battery	ian	ianeisenberg90@gmail.com	True	False	False	dot_pattern_expectancy	Dot Pattern Expectancy	http://www.mitpressjournals.org/doi/pdf/10.1162/jocn_a_00709	trm_515495b718cd6					2000	AX		-1	113	1454609617764	dot_pattern_expectancy	test			0.0-112.0	-1							[37, 40]			-1			2000				<div class = centerbox><div class = fixation>+</div></div>		240504		0		probe	113		poldrack-single-stim	59	
7ce0474b-9095-4507-a01b-767445a1c93d_114	7ce0474b-9095-4507-a01b-767445a1c93d	Mac OS X,10.10.5	Chrome,48.0.2564	Internal Test Battery	ian	ianeisenberg90@gmail.com	True	False	False	dot_pattern_expectancy	Dot Pattern Expectancy	http://www.mitpressjournals.org/doi/pdf/10.1162/jocn_a_00709	trm_515495b718cd6	250	250	<div class = stopbox><div class = centered-shape id = stop-signal></div><div class = centered-shape id = stop-signal-inner></div></div>	stop	1000	go		32	114	1454609617930	dot_pattern_expectancy	test			0.0-113.0	-1							none			-1			1000				<div class = centerbox><div class = center-text>Respond Faster!</p></div>		240671		0		feedback	114		poldrack-single-stim	59	
7ce0474b-9095-4507-a01b-767445a1c93d_115	7ce0474b-9095-4507-a01b-767445a1c93d	Mac OS X,10.10.5	Chrome,48.0.2564	Internal Test Battery	ian	ianeisenberg90@gmail.com	True	False	False	dot_pattern_expectancy	Dot Pattern Expectancy	http://www.mitpressjournals.org/doi/pdf/10.1162/jocn_a_00709	trm_515495b718cd6					1500	AX		-1	115	1454609618319	dot_pattern_expectancy	test			0.0-114.0	-1							[37, 40]			-1			500				"<div class = centerbox><div class = img-container><img src = ""/static/experiments/dot_pattern_expectancy/images/probe4.png""</img></div></div>"		241060		0		cue	115		poldrack-single-stim	59	
7ce0474b-9095-4507-a01b-767445a1c93d_116	7ce0474b-9095-4507-a01b-767445a1c93d	Mac OS X,10.10.5	Chrome,48.0.2564	Internal Test Battery	ian	ianeisenberg90@gmail.com	True	False	False	dot_pattern_expectancy	Dot Pattern Expectancy	http://www.mitpressjournals.org/doi/pdf/10.1162/jocn_a_00709	trm_515495b718cd6	250	250	<div class = stopbox><div class = centered-shape id = stop-signal></div><div class = centered-shape id = stop-signal-inner></div></div>	go	500	go		32	116	1454609618434	dot_pattern_expectancy	test			0.0-115.0	-1							none			-1			500				"<div class = centerbox><div class = img-container><img src = ""/static/experiments/dot_pattern_expectancy/images/cue4.png""</img></div></div>"		241175		0		fixation	116		poldrack-single-stim	59	
7ce0474b-9095-4507-a01b-767445a1c93d_117	7ce0474b-9095-4507-a01b-767445a1c93d	Mac OS X,10.10.5	Chrome,48.0.2564	Internal Test Battery	ian	ianeisenberg90@gmail.com	True	False	False	dot_pattern_expectancy	Dot Pattern Expectancy	http://www.mitpressjournals.org/doi/pdf/10.1162/jocn_a_00709	trm_515495b718cd6					2000	AX		32	117	1454609618768	dot_pattern_expectancy	test			0.0-116.0	-1							[37, 40]			-1			2000				<div class = centerbox><div class = fixation>+</div></div>		241509		0		probe	117		poldrack-single-stim	59	
7ce0474b-9095-4507-a01b-767445a1c93d_118	7ce0474b-9095-4507-a01b-767445a1c93d	Mac OS X,10.10.5	Chrome,48.0.2564	Internal Test Battery	ian	ianeisenberg90@gmail.com	True	False	False	dot_pattern_expectancy	Dot Pattern Expectancy	http://www.mitpressjournals.org/doi/pdf/10.1162/jocn_a_00709	trm_515495b718cd6	250	250	<div class = stopbox><div class = centered-shape id = stop-signal></div><div class = centered-shape id = stop-signal-inner></div></div>	stop	1000	nogo		-1	118	1454609618774	dot_pattern_expectancy	test			0.0-117.0	-1							none			-1			1000				<div class = centerbox><div class = center-text>Respond Faster!</p></div>		241514		0		feedback	118		poldrack-single-stim	59	
7ce0474b-9095-4507-a01b-767445a1c93d_119	7ce0474b-9095-4507-a01b-767445a1c93d	Mac OS X,10.10.5	Chrome,48.0.2564	Internal Test Battery	ian	ianeisenberg90@gmail.com	True	False	False	dot_pattern_expectancy	Dot Pattern Expectancy	http://www.mitpressjournals.org/doi/pdf/10.1162/jocn_a_00709	trm_515495b718cd6					1500	AY		-1	119	1454609619081	dot_pattern_expectancy	test			0.0-118.0	-1							[37, 40]			-1			500				"<div class = centerbox><div class = img-container><img src = ""/static/experiments/dot_pattern_expectancy/images/probe4.png""</img></div></div>"		241822		0		cue	119		poldrack-single-stim	59	
7ce0474b-9095-4507-a01b-767445a1c93d_120	7ce0474b-9095-4507-a01b-767445a1c93d	Mac OS X,10.10.5	Chrome,48.0.2564	Internal Test Battery	ian	ianeisenberg90@gmail.com	True	False	False	dot_pattern_expectancy	Dot Pattern Expectancy	http://www.mitpressjournals.org/doi/pdf/10.1162/jocn_a_00709	trm_515495b718cd6					500	go		32	120	1454609619279	dot_pattern_expectancy	test			0.0-119.0	-1							none			-1			500				"<div class = centerbox><div class = img-container><img src = ""/static/experiments/dot_pattern_expectancy/images/cue4.png""</img></div></div>"		242020		0		fixation	120		poldrack-single-stim	59	
7ce0474b-9095-4507-a01b-767445a1c93d_121	7ce0474b-9095-4507-a01b-767445a1c93d	Mac OS X,10.10.5	Chrome,48.0.2564	Internal Test Battery	ian	ianeisenberg90@gmail.com	True	False	False	dot_pattern_expectancy	Dot Pattern Expectancy	http://www.mitpressjournals.org/doi/pdf/10.1162/jocn_a_00709	trm_515495b718cd6	250	250	<div class = stopbox><div class = centered-shape id = stop-signal></div><div class = centered-shape id = stop-signal-inner></div></div>	go	2000	AY		-1	121	1454609619369	dot_pattern_expectancy	test			0.0-120.0	-1							[37, 40]			-1			2000				<div class = centerbox><div class = fixation>+</div></div>		242109		0		probe	121		poldrack-single-stim	59	
7ce0474b-9095-4507-a01b-767445a1c93d_122	7ce0474b-9095-4507-a01b-767445a1c93d	Mac OS X,10.10.5	Chrome,48.0.2564	Internal Test Battery	ian	ianeisenberg90@gmail.com	True	False	False	dot_pattern_expectancy	Dot Pattern Expectancy	http://www.mitpressjournals.org/doi/pdf/10.1162/jocn_a_00709	trm_515495b718cd6					1000	nogo		-1	122	1454609619778	dot_pattern_expectancy	test			0.0-121.0	-1							none			-1			1000				<div class = centerbox><div class = center-text>Respond Faster!</p></div>		242519		0		feedback	122		poldrack-single-stim	59	
7ce0474b-9095-4507-a01b-767445a1c93d_123	7ce0474b-9095-4507-a01b-767445a1c93d	Mac OS X,10.10.5	Chrome,48.0.2564	Internal Test Battery	ian	ianeisenberg90@gmail.com	True	False	False	dot_pattern_expectancy	Dot Pattern Expectancy	http://www.mitpressjournals.org/doi/pdf/10.1162/jocn_a_00709	trm_515495b718cd6	250	250	<div class = stopbox><div class = centered-shape id = stop-signal></div><div class = centered-shape id = stop-signal-inner></div></div>	go	1500	AX		32	123	1454609619940	dot_pattern_expectancy	test			0.0-122.0	-1							[37, 40]			-1			500				"<div class = centerbox><div class = img-container><img src = ""/static/experiments/dot_pattern_expectancy/images/probe4.png""</img></div></div>"		242681		0		cue	123		poldrack-single-stim	59	
7ce0474b-9095-4507-a01b-767445a1c93d_124	7ce0474b-9095-4507-a01b-767445a1c93d	Mac OS X,10.10.5	Chrome,48.0.2564	Internal Test Battery	ian	ianeisenberg90@gmail.com	True	False	False	dot_pattern_expectancy	Dot Pattern Expectancy	http://www.mitpressjournals.org/doi/pdf/10.1162/jocn_a_00709	trm_515495b718cd6					500	nogo		-1	124	1454609620283	dot_pattern_expectancy	test			0.0-123.0	-1							none			-1			500				"<div class = centerbox><div class = img-container><img src = ""/static/experiments/dot_pattern_expectancy/images/cue4.png""</img></div></div>"		243024		0		fixation	124		poldrack-single-stim	59	
7ce0474b-9095-4507-a01b-767445a1c93d_125	7ce0474b-9095-4507-a01b-767445a1c93d	Mac OS X,10.10.5	Chrome,48.0.2564	Internal Test Battery	ian	ianeisenberg90@gmail.com	True	False	False	dot_pattern_expectancy	Dot Pattern Expectancy	http://www.mitpressjournals.org/doi/pdf/10.1162/jocn_a_00709	trm_515495b718cd6	250	250	<div class = stopbox><div class = centered-shape id = stop-signal></div><div class = centered-shape id = stop-signal-inner></div></div>	go	2000	AX		-1	125	1454609620324	dot_pattern_expectancy	test			0.0-124.0	-1							[37, 40]			-1			2000				<div class = centerbox><div class = fixation>+</div></div>		243064		0		probe	125		poldrack-single-stim	59	
7ce0474b-9095-4507-a01b-767445a1c93d_126	7ce0474b-9095-4507-a01b-767445a1c93d	Mac OS X,10.10.5	Chrome,48.0.2564	Internal Test Battery	ian	ianeisenberg90@gmail.com	True	False	False	dot_pattern_expectancy	Dot Pattern Expectancy	http://www.mitpressjournals.org/doi/pdf/10.1162/jocn_a_00709	trm_515495b718cd6					1000	go		32	126	1454609620376	dot_pattern_expectancy	test			0.0-125.0	-1							none			-1			1000				<div class = centerbox><div class = center-text>Respond Faster!</p></div>		243117		0		feedback	126		poldrack-single-stim	59	
7ce0474b-9095-4507-a01b-767445a1c93d_127	7ce0474b-9095-4507-a01b-767445a1c93d	Mac OS X,10.10.5	Chrome,48.0.2564	Internal Test Battery	ian	ianeisenberg90@gmail.com	True	False	False	dot_pattern_expectancy	Dot Pattern Expectancy	http://www.mitpressjournals.org/doi/pdf/10.1162/jocn_a_00709	trm_515495b718cd6	250	250	<div class = stopbox><div class = centered-shape id = stop-signal></div><div class = centered-shape id = stop-signal-inner></div></div>	go	1500	BY	False	72	127	1454609620787	dot_pattern_expectancy	test			0.0-126.0	-1							[37, 40]			-1			500				"<div class = centerbox><div class = img-container><img src = ""/static/experiments/dot_pattern_expectancy/images/probe3.png""</img></div></div>"		243528		0		cue	127		poldrack-single-stim	59	
7ce0474b-9095-4507-a01b-767445a1c93d_128	7ce0474b-9095-4507-a01b-767445a1c93d	Mac OS X,10.10.5	Chrome,48.0.2564	Internal Test Battery	ian	ianeisenberg90@gmail.com	True	False	False	dot_pattern_expectancy	Dot Pattern Expectancy	http://www.mitpressjournals.org/doi/pdf/10.1162/jocn_a_00709	trm_515495b718cd6					500				128	1454609620881	dot_pattern_expectancy	test			0.0-127.0	-1							none			-1			500				"<div class = centerbox><div class = img-container><img src = ""/static/experiments/dot_pattern_expectancy/images/cue3.png""</img></div></div>"		243622		0		fixation	128		poldrack-single-stim	59	
7ce0474b-9095-4507-a01b-767445a1c93d_129	7ce0474b-9095-4507-a01b-767445a1c93d	Mac OS X,10.10.5	Chrome,48.0.2564	Internal Test Battery	ian	ianeisenberg90@gmail.com	True	False	False	dot_pattern_expectancy	Dot Pattern Expectancy	http://www.mitpressjournals.org/doi/pdf/10.1162/jocn_a_00709	trm_515495b718cd6	250	250	<div class = stopbox><div class = centered-shape id = stop-signal></div><div class = centered-shape id = stop-signal-inner></div></div>	go	2000	BY		90	129	1454609621084	dot_pattern_expectancy	test			0.0-128.0	-1							[37, 40]			-1			2000				<div class = centerbox><div class = fixation>+</div></div>		243825		0		probe	129		poldrack-single-stim	59	
7ce0474b-9095-4507-a01b-767445a1c93d_130	7ce0474b-9095-4507-a01b-767445a1c93d	Mac OS X,10.10.5	Chrome,48.0.2564	Internal Test Battery	ian	ianeisenberg90@gmail.com	True	False	False	dot_pattern_expectancy	Dot Pattern Expectancy	http://www.mitpressjournals.org/doi/pdf/10.1162/jocn_a_00709	trm_515495b718cd6					1000				130	1454609621333	dot_pattern_expectancy	test			0.0-129.0	-1							none			-1			1000				<div class = centerbox><div class = center-text>Respond Faster!</p></div>		244074		0		feedback	130		poldrack-single-stim	59	
7ce0474b-9095-4507-a01b-767445a1c93d_131	7ce0474b-9095-4507-a01b-767445a1c93d	Mac OS X,10.10.5	Chrome,48.0.2564	Internal Test Battery	ian	ianeisenberg90@gmail.com	True	False	False	dot_pattern_expectancy	Dot Pattern Expectancy	http://www.mitpressjournals.org/doi/pdf/10.1162/jocn_a_00709	trm_515495b718cd6	250	250	<div class = stopbox><div class = centered-shape id = stop-signal></div><div class = centered-shape id = stop-signal-inner></div></div>	go	1500	practice		77	131	1454609621793	dot_pattern_expectancy				0.0-130.0-0.0	-1							[37, 40]			-1			500				"<div class = centerbox><div class = img-container><img src = ""/static/experiments/dot_pattern_expectancy/images/probe4.png""</img></div></div>"		244533		0		attention_check	131		attention-check	59	
7ce0474b-9095-4507-a01b-767445a1c93d_132	7ce0474b-9095-4507-a01b-767445a1c93d	Mac OS X,10.10.5	Chrome,48.0.2564	Internal Test Battery	ian	ianeisenberg90@gmail.com	True	False	False	dot_pattern_expectancy	Dot Pattern Expectancy	http://www.mitpressjournals.org/doi/pdf/10.1162/jocn_a_00709	trm_515495b718cd6					2000				132	1454609621946	dot_pattern_expectancy				0.0-130.0-0.0	-1							[37, 40]			-1			2000				<div class = centerbox><div class = fixation>+</div></div>		244686		0		attention_check	131		attention-check	59	
7ce0474b-9095-4507-a01b-767445a1c93d_133	7ce0474b-9095-4507-a01b-767445a1c93d	Mac OS X,10.10.5	Chrome,48.0.2564	Internal Test Battery	ian	ianeisenberg90@gmail.com	True	False	False	dot_pattern_expectancy	Dot Pattern Expectancy	http://www.mitpressjournals.org/doi/pdf/10.1162/jocn_a_00709	trm_515495b718cd6	250	250	<div class = stopbox><div class = centered-shape id = stop-signal></div><div class = centered-shape id = stop-signal-inner></div></div>	go	1000	practice		90	133	1454609622090	dot_pattern_expectancy				0.0-131.0	-1							none			-1			1000				<div class = centerbox><div class = center-text>Respond Faster!</p></div>		244830		0		rest	132		poldrack-text	59	
7ce0474b-9095-4507-a01b-767445a1c93d_134	7ce0474b-9095-4507-a01b-767445a1c93d	Mac OS X,10.10.5	Chrome,48.0.2564	Internal Test Battery	ian	ianeisenberg90@gmail.com	True	False	False	dot_pattern_expectancy	Dot Pattern Expectancy	http://www.mitpressjournals.org/doi/pdf/10.1162/jocn_a_00709	trm_515495b718cd6					1500	AX			134	1454609622387	dot_pattern_expectancy	test			0.0-132.0	-1							[37, 40]			-1			500				"<div class = centerbox><div class = img-container><img src = ""/static/experiments/dot_pattern_expectancy/images/probe6.png""</img></div></div>"		245128		0		cue	133		poldrack-single-stim	59	
7ce0474b-9095-4507-a01b-767445a1c93d_135	7ce0474b-9095-4507-a01b-767445a1c93d	Mac OS X,10.10.5	Chrome,48.0.2564	Internal Test Battery	ian	ianeisenberg90@gmail.com	True	False	False	dot_pattern_expectancy	Dot Pattern Expectancy	http://www.mitpressjournals.org/doi/pdf/10.1162/jocn_a_00709	trm_515495b718cd6	250	250	<div class = stopbox><div class = centered-shape id = stop-signal></div><div class = centered-shape id = stop-signal-inner></div></div>	stop	500	practice		77	135	1454609622656	dot_pattern_expectancy	test			0.0-133.0	-1							none			-1			500				"<div class = centerbox><div class = img-container><img src = ""/static/experiments/dot_pattern_expectancy/images/cue4.png""</img></div></div>"		245397		0		fixation	134		poldrack-single-stim	59	
